Date,accelX-gX(m/s^2),accelY-gY(m/s^2),accelZ-gZ(m/s^2)
2014-03-09 13:05:33.597,-3.6008794,1.7621324,9.155427
2014-03-09 13:05:33.617,-3.2944214,1.9153614,9.040505
2014-03-09 13:05:33.637,-3.217807,1.9153614,8.925584
2014-03-09 13:05:33.657,-3.1028855,1.9153614,8.887277
2014-03-09 13:05:33.678,-3.064578,1.9536686,8.848969
2014-03-09 13:05:33.697,-2.9879637,1.8387469,9.078813
2014-03-09 13:05:33.717,-2.9113493,1.7238252,9.040505
2014-03-09 13:05:33.737,-2.9113493,1.6472107,9.002198
2014-03-09 13:05:33.757,-2.873042,1.7621324,8.887277
2014-03-09 13:05:33.778,-2.681506,1.9919758,8.887277
2014-03-09 13:05:33.797,-2.7964275,2.0685902,9.078813
2014-03-09 13:05:33.817,-2.873042,2.0685902,9.461885
2014-03-09 13:05:33.837,-2.719813,1.8387469,9.576807
2014-03-09 13:05:33.858,-2.6431987,1.6472107,9.500193
2014-03-09 13:05:33.878,-2.566584,1.7238252,9.308656
2014-03-09 13:05:33.900,-2.336741,1.8770541,9.155427
2014-03-09 13:05:33.918,-2.528277,2.1068976,9.308656
2014-03-09 13:05:33.937,-2.4899697,1.9153614,9.576807
2014-03-09 13:05:33.962,-2.336741,1.6472107,9.500193
2014-03-09 13:05:33.978,-2.4133554,1.7621324,9.423578
2014-03-09 13:05:34.000,-2.183512,1.9153614,9.346964
2014-03-09 13:05:34.022,-2.1068976,1.9536686,9.308656
2014-03-09 13:05:34.037,-2.2218192,2.0685902,9.385271
2014-03-09 13:05:34.058,-2.336741,1.9919758,9.500193
2014-03-09 13:05:34.079,-2.2218192,1.685518,9.461885
2014-03-09 13:05:34.099,-2.183512,1.7238252,9.270349
2014-03-09 13:05:34.117,-2.183512,1.9153614,9.308656
2014-03-09 13:05:34.138,-2.030283,1.8770541,9.346964
2014-03-09 13:05:34.157,-2.1452048,1.7238252,9.500193
2014-03-09 13:05:34.177,-2.1452048,1.6089035,9.5385
2014-03-09 13:05:34.198,-2.1068976,1.4556746,9.500193
2014-03-09 13:05:34.222,-2.030283,1.4939818,9.500193
2014-03-09 13:05:34.240,-1.8387469,1.4939818,9.270349
2014-03-09 13:05:34.261,-1.9536686,1.4939818,9.308656
2014-03-09 13:05:34.278,-1.9919758,1.4556746,9.461885
2014-03-09 13:05:34.298,-1.9153614,1.0726024,9.768343
2014-03-09 13:05:34.318,-1.9536686,1.1492168,9.80665
2014-03-09 13:05:34.340,-1.9536686,1.2258313,9.691729
2014-03-09 13:05:34.388,-1.8770541,1.2258313,9.576807
2014-03-09 13:05:34.404,-2.0685902,1.1492168,9.653421
2014-03-09 13:05:34.416,-1.9919758,1.1492168,9.653421
2014-03-09 13:05:34.420,-1.8770541,1.1492168,9.461885
2014-03-09 13:05:34.441,-1.9536686,1.4939818,9.500193
2014-03-09 13:05:34.458,-1.8770541,1.340753,9.653421
2014-03-09 13:05:34.477,-1.8387469,1.1875241,9.730036
2014-03-09 13:05:34.498,-1.8770541,1.1492168,9.691729
2014-03-09 13:05:34.524,-1.8770541,1.1875241,9.576807
2014-03-09 13:05:34.541,-1.7621324,1.3024458,9.576807
2014-03-09 13:05:34.561,-1.8004397,1.3790601,9.5385
2014-03-09 13:05:34.641,-1.8387469,1.340753,9.576807
2014-03-09 13:05:34.661,-1.8387469,1.4173675,9.730036
2014-03-09 13:05:34.667,-1.8004397,1.4173675,9.768343
2014-03-09 13:05:34.672,-1.7621324,1.4173675,9.615114
2014-03-09 13:05:34.677,-1.8770541,1.4939818,9.5385
2014-03-09 13:05:34.697,-1.8770541,1.4556746,9.576807
2014-03-09 13:05:34.719,-1.8770541,1.532289,9.615114
2014-03-09 13:05:34.738,-1.7621324,1.4173675,9.5385
2014-03-09 13:05:34.764,-1.7621324,1.532289,9.615114
2014-03-09 13:05:34.777,-1.7621324,1.4939818,9.576807
2014-03-09 13:05:34.798,-1.7238252,1.532289,9.461885
2014-03-09 13:05:34.818,-1.7621324,1.532289,9.385271
2014-03-09 13:05:34.839,-1.685518,1.5705963,9.385271
2014-03-09 13:05:34.861,-1.7238252,1.6472107,9.461885
2014-03-09 13:05:34.878,-1.7621324,1.7238252,9.576807
2014-03-09 13:05:34.899,-1.7621324,1.6089035,9.653421
2014-03-09 13:05:34.918,-1.7238252,1.5705963,9.500193
2014-03-09 13:05:34.939,-1.7238252,1.685518,9.5385
2014-03-09 13:05:34.959,-1.6472107,1.7238252,9.576807
2014-03-09 13:05:34.978,-1.685518,1.8004397,9.615114
2014-03-09 13:05:35.000,-1.6472107,1.8387469,9.5385
2014-03-09 13:05:35.018,-1.6472107,1.8004397,9.385271
2014-03-09 13:05:35.041,-1.5705963,1.8387469,9.385271
2014-03-09 13:05:35.061,-1.5705963,1.8770541,9.423578
2014-03-09 13:05:35.079,-1.5705963,1.7238252,9.615114
2014-03-09 13:05:35.124,-1.4939818,1.7621324,9.615114
2014-03-09 13:05:35.130,-1.4939818,1.9153614,9.615114
2014-03-09 13:05:35.141,-1.4556746,1.9919758,9.500193
2014-03-09 13:05:35.161,-1.6089035,1.9919758,9.385271
2014-03-09 13:05:35.177,-1.6472107,1.9919758,9.423578
2014-03-09 13:05:35.197,-1.532289,1.7621324,9.576807
2014-03-09 13:05:35.217,-1.5705963,1.6472107,9.615114
2014-03-09 13:05:35.237,-1.6089035,1.8770541,9.423578
2014-03-09 13:05:35.257,-1.5705963,1.8770541,9.308656
2014-03-09 13:05:35.277,-1.6472107,1.9153614,9.500193
2014-03-09 13:05:35.297,-1.6472107,1.7238252,9.844957
2014-03-09 13:05:35.317,-1.5705963,1.7238252,9.730036
2014-03-09 13:05:35.337,-1.4939818,1.9153614,9.5385
2014-03-09 13:05:35.366,-1.5705963,2.183512,9.615114
2014-03-09 13:05:35.377,-1.4556746,1.9536686,9.270349
2014-03-09 13:05:35.400,-1.6472107,2.1068976,9.385271
2014-03-09 13:05:35.417,-1.6089035,2.1452048,9.615114
2014-03-09 13:05:35.445,-1.4939818,2.1068976,9.615114
2014-03-09 13:05:35.458,-1.4173675,2.1068976,9.5385
2014-03-09 13:05:35.480,-1.4173675,2.030283,9.461885
2014-03-09 13:05:35.500,-1.4556746,2.0685902,9.385271
2014-03-09 13:05:35.518,-1.532289,2.1068976,9.385271
2014-03-09 13:05:35.545,-1.532289,2.030283,9.461885
2014-03-09 13:05:35.557,-1.5705963,2.1068976,9.423578
2014-03-09 13:05:35.577,-1.4939818,2.1452048,9.308656
2014-03-09 13:05:35.598,-1.4939818,2.183512,9.385271
2014-03-09 13:05:35.617,-1.4556746,2.0685902,9.615114
2014-03-09 13:05:35.645,-1.532289,2.1068976,9.615114
2014-03-09 13:05:35.657,-1.5705963,2.1452048,9.615114
2014-03-09 13:05:35.678,-1.4939818,2.183512,9.615114
2014-03-09 13:05:35.698,-1.4556746,2.336741,9.346964
2014-03-09 13:05:35.722,-1.4939818,2.3750482,9.308656
2014-03-09 13:05:35.739,-1.532289,2.2218192,9.308656
2014-03-09 13:05:35.757,-1.532289,2.1068976,9.423578
2014-03-09 13:05:35.778,-1.532289,2.0685902,9.270349
2014-03-09 13:05:35.798,-1.5705963,2.1068976,9.270349
2014-03-09 13:05:35.822,-1.6089035,2.2218192,9.385271
2014-03-09 13:05:35.839,-1.4939818,2.1068976,9.615114
2014-03-09 13:05:35.859,-1.5705963,2.1452048,9.615114
2014-03-09 13:05:35.878,-1.5705963,2.2218192,9.461885
2014-03-09 13:05:35.898,-1.5705963,2.2601264,9.346964
2014-03-09 13:05:35.930,-1.4939818,2.2218192,9.461885
2014-03-09 13:05:35.941,-1.4556746,2.1452048,9.615114
2014-03-09 13:05:35.957,-1.4939818,2.1452048,9.691729
2014-03-09 13:05:35.977,-1.4556746,2.1068976,9.615114
2014-03-09 13:05:35.998,-1.532289,2.2984335,9.461885
2014-03-09 13:05:36.018,-1.4939818,2.2601264,9.385271
2014-03-09 13:05:36.038,-1.4939818,2.2218192,9.308656
2014-03-09 13:05:36.059,-1.532289,2.1452048,9.308656
2014-03-09 13:05:36.078,-1.4939818,2.0685902,9.423578
2014-03-09 13:05:36.104,-1.4556746,1.9919758,9.423578
2014-03-09 13:05:36.146,-1.5705963,2.1068976,9.346964
2014-03-09 13:05:36.151,-1.4556746,2.030283,9.615114
2014-03-09 13:05:36.157,-1.4556746,1.9536686,9.80665
2014-03-09 13:05:36.177,-1.4556746,1.9536686,9.768343
2014-03-09 13:05:36.198,-1.4939818,2.030283,9.576807
2014-03-09 13:05:36.218,-1.532289,2.2984335,9.385271
2014-03-09 13:05:36.243,-1.4939818,2.2218192,9.385271
2014-03-09 13:05:36.257,-1.4556746,2.1452048,9.423578
2014-03-09 13:05:36.277,-1.4556746,2.1068976,9.423578
2014-03-09 13:05:36.297,-1.532289,2.030283,9.615114
2014-03-09 13:05:36.317,-1.4556746,2.030283,9.615114
2014-03-09 13:05:36.338,-1.4939818,2.0685902,9.5385
2014-03-09 13:05:36.398,-1.5705963,2.1452048,9.461885
2014-03-09 13:05:36.416,-1.4556746,2.0685902,9.423578
2014-03-09 13:05:36.430,-1.4939818,2.0685902,9.500193
2014-03-09 13:05:36.441,-1.4939818,2.0685902,9.576807
2014-03-09 13:05:36.446,-1.4939818,2.0685902,9.500193
2014-03-09 13:05:36.457,-1.532289,2.030283,9.5385
2014-03-09 13:05:36.477,-1.4939818,2.030283,9.576807
2014-03-09 13:05:36.498,-1.4556746,2.0685902,9.500193
2014-03-09 13:05:36.518,-1.4939818,2.1068976,9.385271
2014-03-09 13:05:36.538,-1.4939818,2.2218192,9.576807
2014-03-09 13:05:36.558,-1.4556746,2.0685902,9.691729
2014-03-09 13:05:36.579,-1.4556746,1.9919758,9.653421
2014-03-09 13:05:36.600,-1.4939818,2.1068976,9.423578
2014-03-09 13:05:36.620,-1.3790601,2.336741,9.423578
2014-03-09 13:05:36.643,-1.340753,2.2984335,9.615114
2014-03-09 13:05:36.657,-1.340753,2.2218192,9.5385
2014-03-09 13:05:36.686,-1.3790601,2.2601264,9.385271
2014-03-09 13:05:36.702,-1.3024458,2.336741,9.461885
2014-03-09 13:05:36.717,-1.2641385,2.566584,9.461885
2014-03-09 13:05:36.737,-1.4939818,2.7581203,9.576807
2014-03-09 13:05:36.758,-2.6431987,2.9113493,11.377247
2014-03-09 13:05:36.777,-2.6048915,1.8387469,10.726024
2014-03-09 13:05:36.798,-2.2984335,0.91937345,9.270349
2014-03-09 13:05:36.817,-2.336741,0.45968673,8.197746
2014-03-09 13:05:36.838,-3.1794999,0.61291564,8.350976
2014-03-09 13:05:36.858,-3.6008794,0.49799395,8.6574335
2014-03-09 13:05:36.878,-3.8307228,0.49799395,9.270349
2014-03-09 13:05:36.902,-3.7924154,0.22984336,10.228029
2014-03-09 13:05:36.921,-3.6008794,0.22984336,9.040505
2014-03-09 13:05:36.938,-4.060566,-0.11492168,7.3549876
2014-03-09 13:05:36.963,-4.903325,-0.8810662,4.7500963
2014-03-09 13:05:36.979,-5.439626,-1.5705963,3.1028855
2014-03-09 13:05:37.001,-5.554548,-0.19153613,8.695741
2014-03-09 13:05:37.018,-7.240066,0.19153613,12.334928
2014-03-09 13:05:37.038,-8.42759,-0.80445176,13.292608
2014-03-09 13:05:37.058,-5.7843914,-1.2641385,10.534488
2014-03-09 13:05:37.084,-1.6472107,-2.566584,10.381259
2014-03-09 13:05:37.110,-1.4556746,-1.9919758,10.496181
2014-03-09 13:05:37.120,-0.842759,0.8810662,12.564771
2014-03-09 13:05:37.138,-0.5746084,4.060566,12.258312
2014-03-09 13:05:37.157,-0.34476504,3.6008794,10.189722
2014-03-09 13:05:37.177,0.076614454,3.064578,10.419566
2014-03-09 13:05:37.198,1.1875241,3.6391866,11.722012
2014-03-09 13:05:37.218,1.7621324,4.8267107,12.449849
2014-03-09 13:05:37.244,2.030283,4.903325,12.411542
2014-03-09 13:05:37.258,2.030283,5.0182467,12.488156
2014-03-09 13:05:37.278,1.8770541,5.0182467,11.683704
2014-03-09 13:05:37.300,1.7238252,5.631162,9.768343
2014-03-09 13:05:37.317,1.532289,5.363012,8.963891
2014-03-09 13:05:37.338,1.2258313,4.7884035,8.312668
2014-03-09 13:05:37.358,0.61291564,4.55856,8.274361
2014-03-09 13:05:37.377,0.30645782,4.3287168,7.967903
2014-03-09 13:05:37.402,-0.2681506,4.367024,7.0485296
2014-03-09 13:05:37.418,-0.34476504,4.6351743,6.435614
2014-03-09 13:05:37.438,-0.11492168,5.133168,6.205771
2014-03-09 13:05:37.458,0.2681506,5.631162,6.3589997
2014-03-09 13:05:37.478,0.15322891,5.746084,6.397307
2014-03-09 13:05:37.500,-0.076614454,5.7843914,6.090849
2014-03-09 13:05:37.520,-0.4213795,5.93762,5.5162406
2014-03-09 13:05:37.539,-0.2681506,6.588843,5.2863975
2014-03-09 13:05:37.559,0.0,6.8186865,5.7843914
2014-03-09 13:05:37.579,0.0,6.8569937,5.861006
2014-03-09 13:05:37.611,-0.38307226,7.0102224,4.6351743
2014-03-09 13:05:37.651,-0.38307226,7.1634517,4.4436383
2014-03-09 13:05:37.667,-0.49799395,7.240066,4.2521024
2014-03-09 13:05:37.676,-0.34476504,7.431602,4.673482
2014-03-09 13:05:37.678,-0.2681506,7.8146744,4.7884035
2014-03-09 13:05:37.702,-0.19153613,7.776367,4.9416323
2014-03-09 13:05:37.718,-0.38307226,7.776367,4.7500963
2014-03-09 13:05:37.739,-0.6895301,7.469909,4.367024
2014-03-09 13:05:37.759,-1.1109096,7.2783732,4.711789
2014-03-09 13:05:37.778,-1.1109096,7.431602,4.9799395
2014-03-09 13:05:37.803,-1.0342951,7.469909,5.2480903
2014-03-09 13:05:37.820,-1.1109096,7.5082164,5.3247046
2014-03-09 13:05:37.842,-1.2258313,7.5465236,4.596867
2014-03-09 13:05:37.862,-1.1875241,7.6614456,4.55856
2014-03-09 13:05:37.878,-1.0342951,7.8529816,4.8267107
2014-03-09 13:05:37.898,-0.7661445,8.082825,5.0182467
2014-03-09 13:05:37.918,-0.38307226,8.236053,4.903325
2014-03-09 13:05:37.938,-0.38307226,8.274361,4.6351743
2014-03-09 13:05:37.961,-0.34476504,8.197746,4.673482
2014-03-09 13:05:37.987,-0.38307226,7.8912888,5.094861
2014-03-09 13:05:38.011,-1.1492168,6.6271505,4.9416323
2014-03-09 13:05:38.018,-1.6089035,5.9759274,5.094861
2014-03-09 13:05:38.043,-2.1068976,5.094861,5.209783
2014-03-09 13:05:38.061,-2.9496565,4.098873,4.367024
2014-03-09 13:05:38.078,-3.1794999,4.0222588,4.4436383
2014-03-09 13:05:38.112,-3.1028855,3.8307228,5.2480903
2014-03-09 13:05:38.121,-2.6431987,4.1371803,6.244078
2014-03-09 13:05:38.153,0.15322891,6.3589997,8.695741
2014-03-09 13:05:38.164,1.2258313,7.5082164,9.11712
2014-03-09 13:05:38.177,1.7238252,8.312668,9.423578
2014-03-09 13:05:38.187,1.532289,8.504205,9.80665
2014-03-09 13:05:38.209,1.1109096,7.967903,10.189722
2014-03-09 13:05:38.217,0.91937345,7.6231384,10.419566
2014-03-09 13:05:38.238,0.9959879,7.6231384,10.266336
2014-03-09 13:05:38.249,1.1109096,7.8529816,9.844957
2014-03-09 13:05:38.267,1.1875241,8.00621,9.078813
2014-03-09 13:05:38.287,1.3024458,8.0445175,8.504205
2014-03-09 13:05:38.297,1.5705963,8.159439,8.197746
2014-03-09 13:05:38.317,1.4173675,8.00621,8.00621
2014-03-09 13:05:38.327,1.0726024,7.469909,7.776367
2014-03-09 13:05:38.350,0.80445176,6.933608,7.6614456
2014-03-09 13:05:38.362,0.91937345,6.703765,7.6231384
2014-03-09 13:05:38.377,1.1492168,6.895301,7.5848308
2014-03-09 13:05:38.403,1.2641385,6.9719152,7.3166804
2014-03-09 13:05:38.416,1.1492168,6.8569937,6.9719152
2014-03-09 13:05:38.428,1.0726024,6.6654577,7.240066
2014-03-09 13:05:38.438,0.91937345,6.435614,7.3549876
2014-03-09 13:05:38.459,0.7661445,6.244078,7.431602
2014-03-09 13:05:38.477,0.61291564,6.129156,7.469909
2014-03-09 13:05:38.487,0.49799395,6.0525417,7.469909
2014-03-09 13:05:38.513,0.49799395,6.0142345,7.6614456
2014-03-09 13:05:38.517,0.49799395,5.9759274,7.73806
2014-03-09 13:05:38.538,0.4213795,5.9759274,7.6614456
2014-03-09 13:05:38.558,0.38307226,5.9759274,7.6231384
2014-03-09 13:05:38.569,0.49799395,6.167464,7.5465236
2014-03-09 13:05:38.589,0.61291564,6.2823853,7.699753
2014-03-09 13:05:38.612,0.61291564,6.244078,7.73806
2014-03-09 13:05:38.621,0.5746084,6.129156,8.082825
2014-03-09 13:05:38.652,0.4213795,5.93762,8.197746
2014-03-09 13:05:38.662,0.2681506,5.899313,8.082825
2014-03-09 13:05:38.665,0.2681506,5.9759274,8.00621
2014-03-09 13:05:38.677,0.34476504,6.0142345,7.8146744
2014-03-09 13:05:38.697,0.38307226,6.090849,7.73806
2014-03-09 13:05:38.712,0.45968673,6.090849,7.776367
2014-03-09 13:05:38.728,0.49799395,6.090849,8.00621
2014-03-09 13:05:38.748,0.4213795,6.0525417,8.197746
2014-03-09 13:05:38.758,0.30645782,5.899313,8.236053
2014-03-09 13:05:38.778,0.22984336,5.93762,7.8912888
2014-03-09 13:05:38.788,0.22984336,5.93762,7.699753
2014-03-09 13:05:38.809,0.19153613,5.93762,7.699753
2014-03-09 13:05:38.828,0.15322891,5.861006,7.73806
2014-03-09 13:05:38.839,0.076614454,5.7843914,8.197746
2014-03-09 13:05:38.858,0.0,5.66947,8.42759
2014-03-09 13:05:38.868,-0.15322891,5.592855,8.274361
2014-03-09 13:05:38.888,-0.22984336,5.592855,7.6614456
2014-03-09 13:05:38.912,-0.30645782,5.631162,7.3166804
2014-03-09 13:05:38.921,-0.30645782,5.439626,7.699753
2014-03-09 13:05:38.938,-0.2681506,5.171476,8.159439
2014-03-09 13:05:38.951,-0.22984336,5.056554,8.312668
2014-03-09 13:05:38.963,-0.22984336,4.9799395,8.465898
2014-03-09 13:05:38.977,-0.22984336,5.0182467,8.619126
2014-03-09 13:05:38.999,-0.22984336,4.9416323,8.580819
2014-03-09 13:05:39.017,-0.2681506,4.711789,8.542512
2014-03-09 13:05:39.027,-0.34476504,4.596867,8.810662
2014-03-09 13:05:39.048,-0.34476504,4.4436383,8.925584
2014-03-09 13:05:39.061,-0.45968673,4.4819455,8.734048
2014-03-09 13:05:39.077,-0.45968673,4.5202527,8.734048
2014-03-09 13:05:39.098,-0.45968673,4.6351743,8.887277
2014-03-09 13:05:39.112,-0.49799395,4.55856,8.925584
2014-03-09 13:05:39.130,-0.61291564,4.4436383,8.848969
2014-03-09 13:05:39.143,-0.6512229,4.3287168,8.848969
2014-03-09 13:05:39.162,-0.6512229,4.4436383,8.810662
2014-03-09 13:05:39.167,-0.5363012,4.6351743,8.6574335
2014-03-09 13:05:39.188,-0.45968673,4.7884035,8.580819
2014-03-09 13:05:39.213,-0.4213795,4.865018,8.734048
2014-03-09 13:05:39.219,-0.4213795,4.7884035,8.695741
2014-03-09 13:05:39.238,-0.45968673,4.6351743,8.695741
2014-03-09 13:05:39.250,-0.45968673,4.596867,8.772355
2014-03-09 13:05:39.270,-0.4213795,4.596867,8.580819
2014-03-09 13:05:39.289,-0.4213795,4.673482,8.312668
2014-03-09 13:05:39.298,-0.34476504,4.7500963,8.350976
2014-03-09 13:05:39.322,-0.30645782,4.8267107,8.580819
2014-03-09 13:05:39.330,-0.30645782,4.673482,8.772355
2014-03-09 13:05:39.350,-0.34476504,4.596867,8.772355
2014-03-09 13:05:39.363,-0.38307226,4.6351743,8.580819
2014-03-09 13:05:39.379,-0.34476504,4.673482,8.504205
2014-03-09 13:05:39.400,-0.2681506,4.711789,8.542512
2014-03-09 13:05:39.409,-0.22984336,4.711789,8.542512
2014-03-09 13:05:39.429,-0.2681506,4.7884035,8.6574335
2014-03-09 13:05:39.441,-0.22984336,4.8267107,8.6574335
2014-03-09 13:05:39.460,-0.15322891,4.7500963,8.734048
2014-03-09 13:05:39.479,-0.15322891,4.596867,8.580819
2014-03-09 13:05:39.489,-0.15322891,4.673482,8.389283
2014-03-09 13:05:39.513,-0.11492168,4.673482,8.312668
2014-03-09 13:05:39.517,-0.15322891,4.711789,8.236053
2014-03-09 13:05:39.541,-0.15322891,4.596867,8.274361
2014-03-09 13:05:39.561,0.0,4.55856,8.312668
2014-03-09 13:05:39.567,0.076614454,4.711789,8.389283
2014-03-09 13:05:39.591,0.15322891,4.7500963,8.312668
2014-03-09 13:05:39.597,0.15322891,4.903325,8.236053
2014-03-09 13:05:39.618,0.11492168,4.7884035,7.967903
2014-03-09 13:05:39.628,0.076614454,4.7500963,7.8912888
2014-03-09 13:05:39.652,-0.076614454,4.8267107,7.967903
2014-03-09 13:05:39.668,-0.076614454,4.7884035,8.312668
2014-03-09 13:05:39.677,-0.19153613,4.596867,8.695741
2014-03-09 13:05:39.698,-0.11492168,4.5202527,8.734048
2014-03-09 13:05:39.721,0.076614454,4.55856,8.848969
2014-03-09 13:05:39.729,0.22984336,4.673482,8.848969
2014-03-09 13:05:39.751,0.30645782,4.4436383,8.810662
2014-03-09 13:05:39.764,0.15322891,3.86903,8.42759
2014-03-09 13:05:39.779,-0.34476504,3.4859576,7.6614456
2014-03-09 13:05:39.789,-0.61291564,3.371036,6.895301
2014-03-09 13:05:39.815,-0.38307226,2.9496565,6.397307
2014-03-09 13:05:39.827,0.2681506,2.2984335,5.554548
2014-03-09 13:05:39.838,1.0726024,1.8387469,5.056554
2014-03-09 13:05:39.858,0.5363012,1.7238252,5.401319
2014-03-09 13:05:39.868,0.15322891,1.1492168,6.3206925
2014-03-09 13:05:39.888,-0.11492168,0.7661445,6.5505357
2014-03-09 13:05:39.898,-0.076614454,0.91937345,6.895301
2014-03-09 13:05:39.918,0.45968673,0.842759,7.967903
2014-03-09 13:05:39.938,1.7238252,0.076614454,7.5465236
2014-03-09 13:05:39.955,2.873042,-0.076614454,6.8569937
2014-03-09 13:05:39.969,4.2904096,0.5746084,8.0445175
2014-03-09 13:05:39.981,4.865018,1.3790601,9.232041
2014-03-09 13:05:40.000,5.209783,2.2984335,8.695741
2014-03-09 13:05:40.013,4.9416323,4.175488,8.082825
2014-03-09 13:05:40.028,5.2480903,5.707777,7.73806
2014-03-09 13:05:40.041,6.3589997,6.6654577,7.1251445
2014-03-09 13:05:40.057,6.895301,8.00621,7.776367
2014-03-09 13:05:40.077,6.895301,8.504205,8.695741
2014-03-09 13:05:40.088,6.7803793,7.5465236,8.925584
2014-03-09 13:05:40.109,6.9719152,5.899313,8.236053
2014-03-09 13:05:40.144,7.201759,5.7843914,7.431602
2014-03-09 13:05:40.153,8.197746,6.397307,7.1251445
2014-03-09 13:05:40.164,8.772355,6.7803793,6.5505357
2014-03-09 13:05:40.169,7.2783732,6.8569937,5.93762
2014-03-09 13:05:40.189,6.8569937,5.592855,5.592855
2014-03-09 13:05:40.209,9.423578,5.171476,7.1634517
2014-03-09 13:05:40.220,10.0748005,6.703765,9.844957
2014-03-09 13:05:40.239,9.040505,6.090849,10.0748005
2014-03-09 13:05:40.253,7.6231384,3.4859576,8.121132
2014-03-09 13:05:40.269,6.0525417,2.681506,5.554548
2014-03-09 13:05:40.289,5.592855,4.405331,5.133168
2014-03-09 13:05:40.302,5.7843914,5.861006,6.5122285
2014-03-09 13:05:40.318,6.0525417,6.0525417,7.3166804
2014-03-09 13:05:40.329,6.435614,4.865018,7.0485296
2014-03-09 13:05:40.350,6.244078,3.3327289,6.6654577
2014-03-09 13:05:40.361,5.899313,2.9496565,6.244078
2014-03-09 13:05:40.378,6.397307,2.873042,6.4739213
2014-03-09 13:05:40.399,6.703765,2.9113493,7.2783732
2014-03-09 13:05:40.409,6.742072,3.6008794,7.8146744
2014-03-09 13:05:40.429,6.3206925,4.6351743,8.504205
2014-03-09 13:05:40.440,6.090849,5.401319,8.389283
2014-03-09 13:05:40.459,7.8912888,3.6008794,7.73806
2014-03-09 13:05:40.478,8.695741,0.0,8.389283
2014-03-09 13:05:40.489,8.963891,-0.61291564,11.60709
2014-03-09 13:05:40.509,9.002198,0.61291564,14.173674
2014-03-09 13:05:40.526,6.8186865,1.0342951,10.534488
2014-03-09 13:05:40.551,6.244078,1.9919758,8.236053
2014-03-09 13:05:40.552,5.439626,0.9959879,6.6271505
2014-03-09 13:05:40.570,4.213795,-0.80445176,7.6231384
2014-03-09 13:05:40.591,3.9456444,-2.528277,8.6574335
2014-03-09 13:05:40.598,4.673482,-2.2601264,8.925584
2014-03-09 13:05:40.617,4.673482,-1.4556746,8.772355
2014-03-09 13:05:40.628,3.9073372,-1.8004397,9.040505
2014-03-09 13:05:40.648,3.9839516,-0.9576807,8.695741
2014-03-09 13:05:40.660,4.0222588,0.34476504,8.274361
2014-03-09 13:05:40.677,3.7924154,-0.38307226,8.236053
2014-03-09 13:05:40.697,2.528277,-1.4556746,8.772355
2014-03-09 13:05:40.707,1.5705963,-0.5746084,9.423578
2014-03-09 13:05:40.728,2.3750482,0.6895301,9.615114
2014-03-09 13:05:40.749,3.4093432,0.49799395,10.419566
2014-03-09 13:05:40.758,3.4859576,0.8810662,10.228029
2014-03-09 13:05:40.771,3.2561142,0.49799395,9.040505
2014-03-09 13:05:40.787,2.6431987,0.91937345,8.810662
2014-03-09 13:05:40.807,1.9153614,1.1109096,8.734048
2014-03-09 13:05:40.817,1.7238252,1.4173675,8.274361
2014-03-09 13:05:40.837,1.9536686,1.1492168,8.580819
2014-03-09 13:05:40.857,2.2601264,0.91937345,9.11712
2014-03-09 13:05:40.867,2.4133554,1.7621324,9.193734
2014-03-09 13:05:40.891,2.873042,1.8387469,9.193734
2014-03-09 13:05:40.898,2.9113493,0.8810662,9.002198
2014-03-09 13:05:40.918,2.4133554,0.6512229,8.580819
2014-03-09 13:05:40.939,2.1068976,1.6472107,7.6614456
2014-03-09 13:05:40.949,1.6472107,3.4476504,7.201759
2014-03-09 13:05:40.969,1.3790601,3.371036,8.082825
2014-03-09 13:05:40.979,1.3024458,2.9879637,8.810662
2014-03-09 13:05:41.000,1.7238252,2.2984335,7.469909
2014-03-09 13:05:41.009,1.8770541,1.6089035,7.469909
2014-03-09 13:05:41.029,2.4899697,-1.0342951,9.346964
2014-03-09 13:05:41.077,1.9919758,-0.80445176,9.653421
2014-03-09 13:05:41.080,0.6512229,1.0342951,8.6574335
2014-03-09 13:05:41.085,0.49799395,1.7238252,8.42759
2014-03-09 13:05:41.089,1.1492168,1.9153614,9.385271
2014-03-09 13:05:41.108,1.8387469,2.336741,10.113108
2014-03-09 13:05:41.128,1.9919758,3.1028855,10.611102
2014-03-09 13:05:41.137,1.7238252,2.4516625,10.496181
2014-03-09 13:05:41.162,1.5705963,2.4899697,9.730036
2014-03-09 13:05:41.168,2.0685902,1.1109096,9.5385
2014-03-09 13:05:41.189,2.336741,0.34476504,9.346964
2014-03-09 13:05:41.208,2.1068976,0.49799395,9.193734
2014-03-09 13:05:41.224,2.336741,0.6512229,9.155427
2014-03-09 13:05:41.241,2.7964275,0.38307226,9.5385
2014-03-09 13:05:41.248,2.9113493,0.49799395,9.80665
2014-03-09 13:05:41.268,2.6431987,0.91937345,9.615114
2014-03-09 13:05:41.284,2.1452048,0.9959879,9.002198
2014-03-09 13:05:41.316,1.8387469,1.0342951,8.082825
2014-03-09 13:05:41.328,1.532289,0.9959879,7.0102224
2014-03-09 13:05:41.329,1.0342951,1.1492168,5.66947
2014-03-09 13:05:41.360,0.7661445,1.1875241,4.405331
2014-03-09 13:05:41.360,0.5363012,0.91937345,3.2944214
2014-03-09 13:05:41.377,1.2258313,0.2681506,2.566584
2014-03-09 13:05:41.401,3.4476504,-0.076614454,3.86903
2014-03-09 13:05:41.408,6.205771,-0.19153613,8.121132
2014-03-09 13:05:41.425,8.695741,-0.38307226,11.492168
2014-03-09 13:05:41.437,9.461885,-0.49799395,14.709975
2014-03-09 13:05:41.460,10.419566,0.11492168,14.901511
2014-03-09 13:05:41.468,6.0142345,1.7621324,9.768343
2014-03-09 13:05:41.487,4.9416323,4.5202527,5.66947
2014-03-09 13:05:41.507,5.9759274,5.401319,4.596867
2014-03-09 13:05:41.518,7.469909,7.5848308,5.094861
2014-03-09 13:05:41.537,8.963891,9.921572,5.363012
2014-03-09 13:05:41.547,7.469909,14.173674,-1.532289
2014-03-09 13:05:41.567,4.596867,5.171476,3.715801
2014-03-09 13:05:41.588,5.746084,4.903325,-0.49799395
2014-03-09 13:05:41.601,8.350976,6.205771,-0.076614454
2014-03-09 13:05:41.620,8.542512,13.177686,0.5363012
2014-03-09 13:05:41.628,5.171476,14.250289,-1.7238252
2014-03-09 13:05:41.642,3.0262709,8.772355,0.7278373
2014-03-09 13:05:41.668,2.0685902,5.9759274,0.6512229
2014-03-09 13:05:41.677,3.1794999,7.3549876,1.3790601
2014-03-09 13:05:41.698,6.0525417,8.121132,3.9073372
2014-03-09 13:05:41.715,8.619126,10.381259,0.30645782
2014-03-09 13:05:41.728,7.5082164,11.262324,1.1492168
2014-03-09 13:05:41.737,7.469909,9.653421,-0.076614454
2014-03-09 13:05:41.758,5.171476,9.346964,-0.842759
2014-03-09 13:05:41.777,5.094861,8.504205,-3.6391866
2014-03-09 13:05:41.788,2.719813,8.312668,-1.8387469
2014-03-09 13:05:41.807,2.3750482,8.619126,1.3790601
2014-03-09 13:05:41.819,8.810662,7.8912888,0.34476504
2014-03-09 13:05:41.837,8.121132,12.066776,-1.6089035
2014-03-09 13:05:41.857,4.903325,11.377247,-1.2641385
2014-03-09 13:05:41.867,5.439626,4.4436383,-1.6089035
2014-03-09 13:05:41.887,10.457873,-0.7278373,3.0262709
2014-03-09 13:05:41.898,8.465898,2.7964275,-0.34476504
2014-03-09 13:05:41.917,8.619126,3.0262709,-4.2904096
2014-03-09 13:05:41.927,8.963891,4.4436383,-2.6431987
2014-03-09 13:05:41.949,9.730036,8.887277,-2.873042
2014-03-09 13:05:41.969,11.262324,8.274361,-5.439626
2014-03-09 13:05:41.985,10.457873,7.8146744,-0.9576807
2014-03-09 13:05:41.998,9.576807,6.435614,-0.842759
2014-03-09 13:05:42.010,8.695741,7.73806,0.34476504
2014-03-09 13:05:42.027,7.1251445,7.240066,0.11492168
2014-03-09 13:05:42.048,5.4779334,8.00621,0.5363012
2014-03-09 13:05:42.057,5.363012,12.143391,2.4899697
2014-03-09 13:05:42.077,3.9839516,14.939818,0.842759
2014-03-09 13:05:42.087,2.183512,17.889475,-1.1492168
2014-03-09 13:05:42.112,1.1875241,19.574993,-4.865018
2014-03-09 13:05:42.128,0.34476504,16.893488,-13.713987
2014-03-09 13:05:42.137,0.38307226,7.431602,-2.2218192
2014-03-09 13:05:42.158,-0.7278373,3.4476504,-1.8004397
2014-03-09 13:05:42.169,-1.1875241,-0.91937345,-3.715801
2014-03-09 13:05:42.189,0.7278373,-2.183512,-3.2561142
2014-03-09 13:05:42.198,2.4899697,-2.9113493,-0.19153613
2014-03-09 13:05:42.218,3.6391866,-1.9536686,-0.19153613
2014-03-09 13:05:42.238,4.7500963,-0.076614454,-3.715801
2014-03-09 13:05:42.255,4.4436383,2.719813,0.9959879
2014-03-09 13:05:42.269,10.879252,9.730036,-1.2641385
2014-03-09 13:05:42.283,7.5465236,2.6048915,0.49799395
2014-03-09 13:05:42.311,7.0485296,2.030283,7.8529816
2014-03-09 13:05:42.314,11.300632,10.228029,-3.2561142
2014-03-09 13:05:42.328,3.86903,18.464083,-6.3589997
2014-03-09 13:05:42.351,-3.1794999,19.88145,-7.5848308
2014-03-09 13:05:42.358,-5.363012,18.770542,-6.742072
2014-03-09 13:05:42.378,-3.217807,14.135366,-1.1492168
2014-03-09 13:05:42.388,-2.2218192,13.828909,-0.4213795
2014-03-09 13:05:42.420,-0.30645782,10.0748005,-3.4476504
2014-03-09 13:05:42.433,1.4939818,8.6574335,-4.9416323
2014-03-09 13:05:42.439,2.336741,10.0748005,-4.903325
2014-03-09 13:05:42.459,1.4556746,9.385271,-6.129156
2014-03-09 13:05:42.469,2.9879637,10.0748005,-5.056554
2014-03-09 13:05:42.488,2.528277,13.215993,-0.038307227
2014-03-09 13:05:42.501,3.2944214,9.844957,-1.7621324
2014-03-09 13:05:42.519,1.4556746,4.5202527,-0.61291564
2014-03-09 13:05:42.539,-0.49799395,4.6351743,-0.6512229
2014-03-09 13:05:42.550,1.0342951,8.197746,-0.6512229
2014-03-09 13:05:42.569,6.0525417,14.365211,-5.707777
2014-03-09 13:05:42.579,12.909535,4.060566,5.554548
2014-03-09 13:05:42.600,11.415554,-18.119318,7.6231384
2014-03-09 13:05:42.619,15.591042,-18.80885,5.592855
2014-03-09 13:05:42.629,16.4338,-7.0485296,8.848969
2014-03-09 13:05:42.650,16.970102,9.998186,1.6089035
2014-03-09 13:05:42.659,6.8186865,19.651608,-5.707777
2014-03-09 13:05:42.679,-0.34476504,19.88145,-13.9438305
2014-03-09 13:05:42.700,1.4939818,19.843143,-8.350976
2014-03-09 13:05:42.709,4.5202527,16.050728,-2.9113493
2014-03-09 13:05:42.728,7.431602,9.844957,-2.030283
2014-03-09 13:05:42.739,6.0142345,5.2480903,1.2641385
2014-03-09 13:05:42.759,3.1411927,1.9919758,-0.9959879
2014-03-09 13:05:42.779,2.681506,0.5363012,-1.9919758
2014-03-09 13:05:42.788,3.4476504,-0.15322891,-2.4899697
2014-03-09 13:05:42.810,9.078813,4.3287168,4.5202527
2014-03-09 13:05:42.818,19.6133,0.9959879,-0.5363012
2014-03-09 13:05:42.838,19.6133,-18.425776,1.2258313
2014-03-09 13:05:42.847,13.254301,-3.5625722,3.5242648
2014-03-09 13:05:42.867,5.93762,-2.2218192,-2.030283
2014-03-09 13:05:42.887,7.6231384,-3.6391866,-3.5242648
2014-03-09 13:05:42.898,10.0748005,-3.86903,-0.7661445
2014-03-09 13:05:42.918,10.6877165,-3.1794999,0.30645782
2014-03-09 13:05:42.927,9.5385,-2.2218192,0.49799395
2014-03-09 13:05:42.948,9.691729,-0.11492168,0.6512229
2014-03-09 13:05:42.967,10.496181,3.4476504,-1.9536686
2014-03-09 13:05:42.978,9.959879,4.1371803,-1.340753
2014-03-09 13:05:43.000,8.504205,2.2601264,0.91937345
2014-03-09 13:05:43.024,6.742072,0.45968673,1.5705963
2014-03-09 13:05:43.044,7.8529816,-0.9959879,2.6048915
2014-03-09 13:05:43.071,13.599066,1.7238252,4.175488
2014-03-09 13:05:43.075,7.5465236,1.4556746,5.3247046
2014-03-09 13:05:43.099,5.707777,-3.7541082,-1.5705963
2014-03-09 13:05:43.109,9.346964,-4.55856,-5.2863975
2014-03-09 13:05:43.113,8.0445175,-2.1452048,-1.4939818
2014-03-09 13:05:43.120,12.564771,-1.0726024,1.4939818
2014-03-09 13:05:43.141,13.67568,1.9153614,1.5705963
2014-03-09 13:05:43.165,10.342952,1.4173675,2.2984335
2014-03-09 13:05:43.167,9.653421,-1.3790601,0.45968673
2014-03-09 13:05:43.187,8.42759,-2.4899697,-0.5363012
2014-03-09 13:05:43.200,8.580819,-2.528277,1.0342951
2014-03-09 13:05:43.217,9.270349,-1.4556746,1.1875241
2014-03-09 13:05:43.243,9.040505,-0.9959879,0.30645782
2014-03-09 13:05:43.248,7.3549876,-0.8810662,-0.49799395
2014-03-09 13:05:43.267,8.197746,-0.61291564,-0.11492168
2014-03-09 13:05:43.277,11.453861,-0.80445176,0.38307226
2014-03-09 13:05:43.298,9.730036,-0.45968673,0.45968673
2014-03-09 13:05:43.307,7.0102224,0.45968673,-0.11492168
2014-03-09 13:05:43.327,7.2783732,0.22984336,0.4213795
2014-03-09 13:05:43.351,7.6231384,-0.91937345,0.34476504
2014-03-09 13:05:43.357,8.580819,-1.4173675,0.5746084
2014-03-09 13:05:43.377,9.80665,-1.3790601,0.34476504
2014-03-09 13:05:43.387,10.228029,-1.685518,-0.15322891
2014-03-09 13:05:43.414,11.377247,-1.6089035,-0.5746084
2014-03-09 13:05:43.428,11.87524,-0.19153613,-1.1492168
2014-03-09 13:05:43.438,10.496181,-0.38307226,-1.4556746
2014-03-09 13:05:43.471,10.228029,-1.0726024,-0.34476504
2014-03-09 13:05:43.473,10.840945,-1.4556746,0.2681506
2014-03-09 13:05:43.489,10.342952,-0.9576807,0.45968673
2014-03-09 13:05:43.501,9.232041,-0.5746084,-0.34476504
2014-03-09 13:05:43.518,8.159439,-0.7661445,-0.61291564
2014-03-09 13:05:43.538,6.588843,-0.4213795,-0.61291564
2014-03-09 13:05:43.550,7.240066,-0.5363012,-0.34476504
2014-03-09 13:05:43.569,9.193734,-0.5746084,0.038307227
2014-03-09 13:05:43.580,11.032481,-0.9576807,0.61291564
2014-03-09 13:05:43.599,11.032481,-1.1875241,0.91937345
2014-03-09 13:05:43.618,10.802638,-1.0342951,0.61291564
2014-03-09 13:05:43.629,10.113108,-1.0342951,-0.5746084
2014-03-09 13:05:43.650,10.113108,-1.4939818,-1.0726024
2014-03-09 13:05:43.660,11.032481,-2.2984335,-1.0726024
2014-03-09 13:05:43.679,8.121132,-1.7621324,-1.2641385
2014-03-09 13:05:43.700,6.3589997,-1.3024458,-0.11492168
2014-03-09 13:05:43.709,8.580819,-1.0342951,0.11492168
2014-03-09 13:05:43.729,9.040505,-1.1492168,0.30645782
2014-03-09 13:05:43.739,9.078813,-1.3024458,0.49799395
2014-03-09 13:05:43.759,10.726024,-1.340753,0.038307227
2014-03-09 13:05:43.769,10.036493,-1.2258313,-0.45968673
2014-03-09 13:05:43.789,8.695741,-2.183512,-0.15322891
2014-03-09 13:05:43.800,7.967903,-2.0685902,0.15322891
2014-03-09 13:05:43.818,6.6654577,-1.5705963,0.30645782
2014-03-09 13:05:43.839,9.346964,-0.5746084,0.0
2014-03-09 13:05:43.850,11.722012,-0.7661445,-0.7278373
2014-03-09 13:05:43.869,11.568783,-1.2641385,-0.5746084
2014-03-09 13:05:43.889,9.998186,-1.4173675,-0.6512229
2014-03-09 13:05:43.899,9.11712,-1.4556746,-0.5363012
2014-03-09 13:05:43.910,8.963891,-1.2641385,0.0
2014-03-09 13:05:43.928,8.734048,-1.3024458,0.5746084
2014-03-09 13:05:43.947,9.653421,-1.4173675,0.4213795
2014-03-09 13:05:43.957,9.959879,-1.4173675,0.2681506
2014-03-09 13:05:43.977,9.730036,-1.7621324,0.34476504
2014-03-09 13:05:43.997,9.155427,-2.336741,1.1492168
2014-03-09 13:05:44.008,8.504205,-2.681506,1.4173675
2014-03-09 13:05:44.028,9.423578,-2.873042,1.6472107
2014-03-09 13:05:44.037,10.342952,-2.1452048,0.9576807
2014-03-09 13:05:44.062,10.189722,-1.5705963,1.0726024
2014-03-09 13:05:44.077,9.078813,-2.183512,0.6895301
2014-03-09 13:05:44.088,8.963891,-2.0685902,0.0
2014-03-09 13:05:44.108,8.6574335,-4.175488,-0.15322891
2014-03-09 13:05:44.117,9.768343,-6.588843,1.1109096
2014-03-09 13:05:44.137,8.42759,-4.5202527,0.22984336
2014-03-09 13:05:44.148,6.933608,-0.80445176,-1.4556746
2014-03-09 13:05:44.169,8.159439,-0.61291564,-1.6089035
2014-03-09 13:05:44.189,10.228029,0.2681506,-0.22984336
2014-03-09 13:05:44.198,12.564771,1.6472107,-0.4213795
2014-03-09 13:05:44.218,12.105083,1.8004397,-1.2641385
2014-03-09 13:05:44.229,10.381259,0.5363012,-0.9576807
2014-03-09 13:05:44.250,9.078813,0.30645782,-1.3024458
2014-03-09 13:05:44.269,9.11712,-0.076614454,-1.6089035
2014-03-09 13:05:44.278,8.734048,-0.2681506,-0.9959879
2014-03-09 13:05:44.299,8.389283,-0.5363012,-0.34476504
2014-03-09 13:05:44.309,7.967903,-0.91937345,-0.038307227
2014-03-09 13:05:44.329,8.504205,-1.7621324,0.45968673
2014-03-09 13:05:44.352,9.155427,-2.4899697,0.9576807
2014-03-09 13:05:44.363,9.615114,-2.9113493,0.9959879
2014-03-09 13:05:44.378,9.691729,-2.4516625,0.45968673
2014-03-09 13:05:44.389,10.228029,-1.9536686,-0.5363012
2014-03-09 13:05:44.409,9.576807,-1.7621324,-1.1492168
2014-03-09 13:05:44.418,8.0445175,-1.6472107,-1.4556746
2014-03-09 13:05:44.438,8.504205,-1.8770541,-1.2258313
2014-03-09 13:05:44.458,9.002198,-2.030283,-0.5746084
2014-03-09 13:05:44.469,9.844957,-2.183512,0.038307227
2014-03-09 13:05:44.489,10.036493,-2.2601264,0.0
2014-03-09 13:05:44.499,9.615114,-1.8004397,-0.45968673
2014-03-09 13:05:44.518,9.500193,-1.8004397,-0.61291564
2014-03-09 13:05:44.538,9.193734,-1.8387469,-0.4213795
2014-03-09 13:05:44.550,9.615114,-1.8770541,-0.30645782
2014-03-09 13:05:44.569,8.810662,-2.336741,-0.2681506
2014-03-09 13:05:44.578,8.772355,-2.030283,-0.22984336
2014-03-09 13:05:44.599,9.576807,-1.6089035,-0.61291564
2014-03-09 13:05:44.618,10.304645,-1.8770541,-1.0726024
2014-03-09 13:05:44.629,8.6574335,-2.183512,-1.0726024
2014-03-09 13:05:44.652,8.0445175,-2.681506,-0.6895301
2014-03-09 13:05:44.666,9.998186,-2.2984335,-0.15322891
2014-03-09 13:05:44.677,8.848969,-2.3750482,-0.19153613
2014-03-09 13:05:44.687,9.576807,-2.336741,0.19153613
2014-03-09 13:05:44.708,9.500193,-1.5705963,-0.34476504
2014-03-09 13:05:44.728,9.5385,-1.2641385,-0.61291564
2014-03-09 13:05:44.737,9.346964,-1.340753,-0.61291564
2014-03-09 13:05:44.760,9.346964,-1.3790601,-0.842759
2014-03-09 13:05:44.769,8.6574335,-1.4939818,-0.91937345
2014-03-09 13:05:44.789,8.121132,-1.340753,-0.5746084
2014-03-09 13:05:44.799,9.844957,-2.183512,-0.038307227
2014-03-09 13:05:44.818,9.959879,-2.528277,0.0
2014-03-09 13:05:44.838,9.078813,-1.9919758,0.038307227
2014-03-09 13:05:44.850,8.772355,-1.3024458,-0.076614454
2014-03-09 13:05:44.869,10.228029,-2.0685902,-0.7278373
2014-03-09 13:05:44.881,12.143391,-2.6048915,-0.15322891
2014-03-09 13:05:44.898,11.951855,-2.566584,0.19153613
2014-03-09 13:05:44.910,9.576807,-2.4133554,-0.49799395
2014-03-09 13:05:44.927,8.121132,-2.0685902,-1.0726024
2014-03-09 13:05:44.948,7.699753,-2.681506,-1.2258313
2014-03-09 13:05:44.957,8.236053,-2.2218192,0.30645782
2014-03-09 13:05:44.977,8.197746,-1.3024458,0.2681506
2014-03-09 13:05:44.998,8.619126,-1.3024458,0.49799395
2014-03-09 13:05:45.008,10.036493,-2.2218192,0.7661445
2014-03-09 13:05:45.028,9.576807,-2.336741,0.15322891
2014-03-09 13:05:45.037,8.121132,-2.7581203,0.0
2014-03-09 13:05:45.057,8.00621,-2.2218192,-0.34476504
2014-03-09 13:05:45.076,8.465898,-1.0342951,-0.49799395
2014-03-09 13:05:45.088,10.572795,-1.340753,-0.5746084
2014-03-09 13:05:45.108,10.802638,-1.9919758,0.2681506
2014-03-09 13:05:45.117,9.921572,-2.528277,0.19153613
2014-03-09 13:05:45.137,9.040505,-3.1028855,-0.45968673
2014-03-09 13:05:45.148,8.159439,-2.719813,-0.7661445
2014-03-09 13:05:45.168,7.3549876,-1.4556746,-0.49799395
2014-03-09 13:05:45.188,9.155427,-2.528277,-0.38307226
2014-03-09 13:05:45.198,11.147403,-2.9496565,0.38307226
2014-03-09 13:05:45.219,10.802638,-2.4516625,0.19153613
2014-03-09 13:05:45.230,8.504205,-2.0685902,-0.7278373
2014-03-09 13:05:45.251,6.703765,-1.8387469,-0.15322891
2014-03-09 13:05:45.279,7.240066,-0.9959879,0.49799395
2014-03-09 13:05:45.289,9.040505,-0.4213795,0.7661445
2014-03-09 13:05:45.301,10.726024,-1.2258313,1.3024458
2014-03-09 13:05:45.311,10.649409,-0.38307226,1.685518
2014-03-09 13:05:45.328,9.308656,-1.3024458,0.2681506
2014-03-09 13:05:45.337,7.73806,-1.2258313,-0.22984336
2014-03-09 13:05:45.357,9.500193,-0.38307226,-0.22984336
2014-03-09 13:05:45.377,10.764331,-0.11492168,-0.4213795
2014-03-09 13:05:45.388,10.496181,-0.11492168,-0.6512229
2014-03-09 13:05:45.409,9.461885,0.30645782,-0.8810662
2014-03-09 13:05:45.419,9.576807,-0.4213795,-1.0726024
2014-03-09 13:05:45.438,9.653421,-0.11492168,-1.2258313
2014-03-09 13:05:45.465,9.883265,1.0726024,-1.2641385
2014-03-09 13:05:45.469,10.113108,1.9919758,-1.340753
2014-03-09 13:05:45.486,9.385271,2.4899697,-0.9959879
2014-03-09 13:05:45.500,10.266336,3.5625722,-1.0726024
2014-03-09 13:05:45.538,9.883265,3.217807,-1.1109096
2014-03-09 13:05:45.539,9.040505,2.6048915,-1.2641385
2014-03-09 13:05:45.568,8.159439,0.45968673,-1.3024458
2014-03-09 13:05:45.572,7.201759,-3.217807,-0.34476504
2014-03-09 13:05:45.578,7.431602,-4.1371803,1.0342951
2014-03-09 13:05:45.598,7.699753,-2.0685902,-0.22984336
2014-03-09 13:05:45.608,9.270349,0.45968673,-0.80445176
2014-03-09 13:05:45.628,11.683704,2.9113493,-1.6089035
2014-03-09 13:05:45.651,12.181698,4.213795,-2.4516625
2014-03-09 13:05:45.657,9.002198,3.7541082,-1.4939818
2014-03-09 13:05:45.678,8.887277,1.340753,-1.3790601
2014-03-09 13:05:45.688,7.6614456,0.038307227,0.45968673
2014-03-09 13:05:45.709,8.389283,-1.0342951,2.1068976
2014-03-09 13:05:45.719,9.308656,-1.2641385,2.3750482
2014-03-09 13:05:45.738,7.776367,-0.49799395,2.834735
2014-03-09 13:05:45.758,8.695741,-1.2641385,2.528277
2014-03-09 13:05:45.769,11.147403,-1.2641385,2.1452048
2014-03-09 13:05:45.791,11.18571,-0.38307226,2.4516625
2014-03-09 13:05:45.803,11.18571,-0.842759,1.3790601
2014-03-09 13:05:45.819,11.18571,-1.1875241,-0.5363012
2014-03-09 13:05:45.839,10.726024,-0.6895301,-1.9536686
2014-03-09 13:05:45.851,10.304645,-0.2681506,-1.8387469
2014-03-09 13:05:45.868,10.113108,0.0,-1.9153614
2014-03-09 13:05:45.877,9.883265,0.4213795,-1.2258313
2014-03-09 13:05:45.898,9.615114,0.61291564,0.11492168
2014-03-09 13:05:45.917,9.921572,0.45968673,0.842759
2014-03-09 13:05:45.928,10.496181,0.30645782,1.2641385
2014-03-09 13:05:45.948,10.764331,-0.038307227,1.685518
2014-03-09 13:05:45.957,10.189722,-0.38307226,2.0685902
2014-03-09 13:05:45.977,9.002198,-0.7278373,2.1452048
2014-03-09 13:05:45.988,9.002198,-0.8810662,2.030283
2014-03-09 13:05:46.011,9.270349,-0.91937345,2.0685902
2014-03-09 13:05:46.029,9.500193,-0.9576807,1.3790601
2014-03-09 13:05:46.041,9.11712,-0.80445176,0.7278373
2014-03-09 13:05:46.060,8.580819,-0.6895301,0.038307227
2014-03-09 13:05:46.068,8.465898,-0.7278373,0.11492168
2014-03-09 13:05:46.088,8.734048,-0.6512229,0.45968673
2014-03-09 13:05:46.108,9.078813,-0.45968673,0.7661445
2014-03-09 13:05:46.117,9.5385,-0.22984336,0.9959879
2014-03-09 13:05:46.137,9.730036,-0.15322891,1.340753
2014-03-09 13:05:46.148,10.0748005,0.0,1.6089035
2014-03-09 13:05:46.168,9.730036,0.6512229,1.4556746
2014-03-09 13:05:46.188,9.193734,0.91937345,1.1109096
2014-03-09 13:05:46.197,9.500193,0.8810662,1.0726024
2014-03-09 13:05:46.211,9.998186,0.7278373,1.1109096
2014-03-09 13:05:46.229,9.998186,0.34476504,1.1875241
2014-03-09 13:05:46.249,9.80665,-0.076614454,0.80445176
2014-03-09 13:05:46.260,9.461885,-0.34476504,0.49799395
2014-03-09 13:05:46.278,9.270349,-0.4213795,0.2681506
2014-03-09 13:05:46.298,9.346964,-0.45968673,0.19153613
2014-03-09 13:05:46.309,9.346964,-0.30645782,0.2681506
2014-03-09 13:05:46.329,9.232041,-0.22984336,0.4213795
2014-03-09 13:05:46.339,9.232041,-0.19153613,0.45968673
2014-03-09 13:05:46.359,9.002198,0.076614454,0.38307226
2014-03-09 13:05:46.369,9.308656,0.38307226,0.5746084
2014-03-09 13:05:46.389,9.691729,0.6895301,0.6512229
2014-03-09 13:05:46.409,9.883265,1.2258313,0.61291564
2014-03-09 13:05:46.419,10.381259,1.0726024,0.80445176
2014-03-09 13:05:46.438,9.730036,0.61291564,1.1109096
2014-03-09 13:05:46.449,9.002198,-0.15322891,1.8004397
2014-03-09 13:05:46.469,9.11712,-0.5746084,1.9536686
2014-03-09 13:05:46.484,9.270349,-0.842759,1.4556746
2014-03-09 13:05:46.502,9.691729,-1.0726024,1.2641385
2014-03-09 13:05:46.518,9.883265,-0.7661445,1.1109096
2014-03-09 13:05:46.529,9.768343,-0.2681506,0.61291564
2014-03-09 13:05:46.549,9.730036,0.15322891,0.0
2014-03-09 13:05:46.569,9.653421,0.45968673,-0.4213795
2014-03-09 13:05:46.579,9.461885,0.34476504,-0.30645782
2014-03-09 13:05:46.599,9.155427,0.0,-0.076614454
2014-03-09 13:05:46.609,9.232041,0.0,0.19153613
2014-03-09 13:05:46.629,9.155427,-0.038307227,0.2681506
2014-03-09 13:05:46.639,9.040505,0.0,0.6512229
2014-03-09 13:05:46.658,9.576807,-0.038307227,0.842759
2014-03-09 13:05:46.678,9.691729,0.0,0.7278373
2014-03-09 13:05:46.689,9.653421,-0.11492168,0.842759
2014-03-09 13:05:46.709,9.80665,-0.22984336,1.0726024
2014-03-09 13:05:46.720,9.691729,-0.11492168,1.2641385
2014-03-09 13:05:46.739,9.576807,-0.038307227,1.0726024
2014-03-09 13:05:46.759,9.270349,-0.15322891,0.7278373
2014-03-09 13:05:46.769,9.002198,-0.2681506,0.8810662
2014-03-09 13:05:46.789,9.270349,-0.38307226,0.9959879
2014-03-09 13:05:46.804,9.615114,-0.6895301,0.9576807
2014-03-09 13:05:46.820,9.653421,-0.842759,0.9576807
2014-03-09 13:05:46.839,9.346964,-0.7278373,0.842759
2014-03-09 13:05:46.850,9.5385,-0.61291564,0.61291564
2014-03-09 13:05:46.870,9.691729,-0.45968673,0.4213795
2014-03-09 13:05:46.880,9.844957,-0.19153613,0.22984336
2014-03-09 13:05:46.900,9.998186,0.15322891,0.076614454
2014-03-09 13:05:46.909,9.691729,0.6895301,-0.22984336
2014-03-09 13:05:46.929,9.385271,1.1109096,-0.34476504
2014-03-09 13:05:46.950,9.270349,1.3790601,-0.19153613
2014-03-09 13:05:46.959,9.500193,1.3024458,0.038307227
2014-03-09 13:05:46.978,9.730036,1.1492168,0.11492168
2014-03-09 13:05:46.989,9.844957,0.9959879,0.11492168
2014-03-09 13:05:47.011,10.266336,0.80445176,0.038307227
2014-03-09 13:05:47.028,10.036493,1.1109096,0.2681506
2014-03-09 13:05:47.037,9.423578,0.9959879,-0.2681506
2014-03-09 13:05:47.057,9.615114,0.49799395,-0.19153613
2014-03-09 13:05:47.067,9.921572,0.30645782,0.15322891
2014-03-09 13:05:47.087,9.730036,0.11492168,0.30645782
2014-03-09 13:05:47.098,9.423578,-0.11492168,0.30645782
2014-03-09 13:05:47.117,9.423578,-0.15322891,0.61291564
2014-03-09 13:05:47.137,9.346964,-0.4213795,0.49799395
2014-03-09 13:05:47.152,8.963891,-0.45968673,0.45968673
2014-03-09 13:05:47.171,8.580819,-0.49799395,0.6512229
2014-03-09 13:05:47.184,8.580819,-0.5746084,0.8810662
2014-03-09 13:05:47.200,9.193734,-0.4213795,1.2641385
2014-03-09 13:05:47.213,9.5385,-0.076614454,1.2258313
2014-03-09 13:05:47.228,9.461885,0.22984336,0.49799395
2014-03-09 13:05:47.250,9.500193,0.842759,0.0
2014-03-09 13:05:47.257,9.730036,1.3790601,-0.15322891
2014-03-09 13:05:47.281,9.80665,1.685518,-0.38307226
2014-03-09 13:05:47.303,9.653421,1.9153614,-0.45968673
2014-03-09 13:05:47.308,9.615114,1.685518,-0.38307226
2014-03-09 13:05:47.328,9.500193,0.9576807,-0.30645782
2014-03-09 13:05:47.337,9.576807,0.4213795,-0.038307227
2014-03-09 13:05:47.357,9.768343,0.19153613,0.11492168
2014-03-09 13:05:47.368,9.461885,0.30645782,0.34476504
2014-03-09 13:05:47.387,9.11712,0.5363012,0.4213795
2014-03-09 13:05:47.410,8.887277,0.5746084,0.15322891
2014-03-09 13:05:47.417,9.11712,0.4213795,0.38307226
2014-03-09 13:05:47.437,9.691729,0.2681506,0.45968673
2014-03-09 13:05:47.448,9.615114,0.076614454,0.4213795
2014-03-09 13:05:47.467,9.346964,-0.038307227,0.61291564
2014-03-09 13:05:47.488,9.768343,0.076614454,0.6512229
2014-03-09 13:05:47.498,9.80665,0.076614454,0.38307226
2014-03-09 13:05:47.517,10.113108,-0.15322891,0.2681506
2014-03-09 13:05:47.528,10.764331,-0.38307226,0.2681506
2014-03-09 13:05:47.550,10.304645,-0.5363012,0.15322891
2014-03-09 13:05:47.558,9.461885,-0.5746084,-0.038307227
2014-03-09 13:05:47.578,8.542512,-0.22984336,0.22984336
2014-03-09 13:05:47.612,9.844957,-0.076614454,0.076614454
2014-03-09 13:05:47.615,10.840945,-0.038307227,0.11492168
2014-03-09 13:05:47.629,10.113108,0.30645782,-0.038307227
2014-03-09 13:05:47.639,9.040505,0.5746084,-0.38307226
2014-03-09 13:05:47.658,7.8529816,0.7278373,-0.15322891
2014-03-09 13:05:47.678,7.967903,0.9576807,-0.076614454
2014-03-09 13:05:47.689,9.270349,1.3790601,0.22984336
2014-03-09 13:05:47.709,11.18571,1.8004397,-0.038307227
2014-03-09 13:05:47.719,11.453861,2.1068976,-0.61291564
2014-03-09 13:05:47.738,10.0748005,2.1068976,-0.6895301
2014-03-09 13:05:47.759,8.772355,1.4173675,-0.38307226
2014-03-09 13:05:47.770,8.542512,1.1492168,0.22984336
2014-03-09 13:05:47.789,8.312668,1.1109096,0.5363012
2014-03-09 13:05:47.801,8.121132,0.8810662,0.49799395
2014-03-09 13:05:47.818,8.542512,0.38307226,0.7661445
2014-03-09 13:05:47.831,8.389283,-1.1109096,-0.38307226
2014-03-09 13:05:47.853,8.42759,-1.5705963,0.34476504
2014-03-09 13:05:47.861,8.236053,-1.4939818,1.3790601
2014-03-09 13:05:47.877,8.542512,-1.9153614,1.1109096
2014-03-09 13:05:47.897,9.232041,-2.183512,0.9576807
2014-03-09 13:05:47.908,9.80665,-2.0685902,0.5746084
2014-03-09 13:05:47.928,9.883265,-1.4173675,0.7661445
2014-03-09 13:05:47.949,10.572795,-0.49799395,0.842759
2014-03-09 13:05:47.957,11.18571,0.22984336,-0.2681506
2014-03-09 13:05:47.984,10.955867,0.5363012,-1.4556746
2014-03-09 13:05:47.989,10.419566,0.6895301,-1.8770541
2014-03-09 13:05:48.010,9.691729,0.45968673,-1.7621324
2014-03-09 13:05:48.018,9.193734,0.4213795,-1.2641385
2014-03-09 13:05:48.038,9.155427,0.30645782,-0.5746084
2014-03-09 13:05:48.057,9.308656,0.4213795,0.19153613
2014-03-09 13:05:48.069,9.653421,0.38307226,0.6895301
2014-03-09 13:05:48.088,9.730036,0.49799395,0.5746084
2014-03-09 13:05:48.097,9.615114,0.49799395,0.45968673
2014-03-09 13:05:48.117,9.500193,0.5746084,0.4213795
2014-03-09 13:05:48.155,9.5385,0.38307226,-0.038307227
2014-03-09 13:05:48.157,9.691729,-0.038307227,-0.038307227
2014-03-09 13:05:48.168,9.5385,-0.22984336,0.4213795
2014-03-09 13:05:48.177,9.193734,-0.30645782,0.38307226
2014-03-09 13:05:48.198,9.346964,-0.2681506,0.38307226
2014-03-09 13:05:48.208,9.653421,-0.15322891,0.11492168
2014-03-09 13:05:48.228,9.576807,0.038307227,-0.038307227
2014-03-09 13:05:48.251,9.768343,0.076614454,-0.076614454
2014-03-09 13:05:48.258,9.730036,0.038307227,0.34476504
2014-03-09 13:05:48.277,9.385271,-0.038307227,0.38307226
2014-03-09 13:05:48.289,9.615114,-0.22984336,0.4213795
2014-03-09 13:05:48.319,9.653421,0.0,0.2681506
2014-03-09 13:05:48.330,9.346964,0.38307226,-0.19153613
2014-03-09 13:05:48.340,9.040505,0.38307226,-0.22984336
2014-03-09 13:05:48.360,9.346964,0.15322891,0.2681506
2014-03-09 13:05:48.368,9.80665,0.11492168,0.7278373
2014-03-09 13:05:48.388,10.228029,-0.038307227,0.842759
2014-03-09 13:05:48.398,10.228029,-0.22984336,0.7278373
2014-03-09 13:05:48.417,9.959879,-0.2681506,0.34476504
2014-03-09 13:05:48.438,9.5385,-0.19153613,0.19153613
2014-03-09 13:05:48.448,9.193734,0.076614454,0.22984336
2014-03-09 13:05:48.468,9.193734,0.22984336,0.2681506
2014-03-09 13:05:48.477,9.232041,0.6512229,0.61291564
2014-03-09 13:05:48.498,9.80665,0.91937345,0.45968673
2014-03-09 13:05:48.511,9.232041,1.1492168,0.4213795
2014-03-09 13:05:48.529,9.385271,1.0342951,0.34476504
2014-03-09 13:05:48.549,9.346964,0.6512229,0.38307226
2014-03-09 13:05:48.592,9.308656,0.30645782,0.076614454
2014-03-09 13:05:48.605,9.232041,0.9959879,-0.2681506
2014-03-09 13:05:48.613,9.461885,1.3790601,-0.5363012
2014-03-09 13:05:48.613,8.6574335,1.0342951,-0.49799395
2014-03-09 13:05:48.628,7.929596,0.49799395,-0.15322891
2014-03-09 13:05:48.637,8.465898,0.30645782,0.2681506
2014-03-09 13:05:48.657,9.80665,-0.11492168,0.5363012
2014-03-09 13:05:48.677,10.113108,-0.34476504,0.7661445
2014-03-09 13:05:48.688,10.266336,-0.6512229,0.45968673
2014-03-09 13:05:48.713,10.113108,-0.80445176,-0.15322891
2014-03-09 13:05:48.725,10.189722,-0.45968673,-0.038307227
2014-03-09 13:05:48.738,9.998186,-0.45968673,0.4213795
2014-03-09 13:05:48.749,9.844957,-1.0726024,0.7278373
2014-03-09 13:05:48.769,10.381259,-1.8770541,0.7278373
2014-03-09 13:05:48.789,10.189722,-2.336741,0.7278373
2014-03-09 13:05:48.800,9.768343,-1.8770541,0.6895301
2014-03-09 13:05:48.818,9.500193,-1.532289,0.6512229
2014-03-09 13:05:48.829,9.040505,-0.7278373,0.61291564
2014-03-09 13:05:48.849,8.963891,0.15322891,0.5363012
2014-03-09 13:05:48.869,9.193734,0.61291564,0.4213795
2014-03-09 13:05:48.879,9.308656,0.80445176,0.15322891
2014-03-09 13:05:48.899,9.730036,1.1109096,0.19153613
2014-03-09 13:05:48.909,10.113108,1.3790601,-0.15322891
2014-03-09 13:05:48.929,10.228029,1.4173675,-0.5363012
2014-03-09 13:05:48.941,9.768343,1.2641385,-0.45968673
2014-03-09 13:05:48.960,9.653421,0.9959879,-0.19153613
2014-03-09 13:05:48.978,9.346964,0.9576807,0.19153613
2014-03-09 13:05:48.989,9.653421,0.7661445,0.30645782
2014-03-09 13:05:49.009,9.844957,0.5746084,-0.076614454
2014-03-09 13:05:49.021,9.883265,0.34476504,0.0
2014-03-09 13:05:49.039,9.5385,0.15322891,0.076614454
2014-03-09 13:05:49.059,8.6574335,0.15322891,0.11492168
2014-03-09 13:05:49.069,8.772355,0.30645782,0.30645782
2014-03-09 13:05:49.089,9.653421,0.4213795,0.61291564
2014-03-09 13:05:49.102,10.036493,0.38307226,0.5746084
2014-03-09 13:05:49.119,9.844957,0.038307227,0.38307226
2014-03-09 13:05:49.129,9.270349,-0.30645782,0.5363012
2014-03-09 13:05:49.150,9.193734,-0.61291564,0.7278373
2014-03-09 13:05:49.161,9.232041,-0.7278373,0.6512229
2014-03-09 13:05:49.177,9.500193,-0.6895301,0.6895301
2014-03-09 13:05:49.198,9.5385,-0.5363012,0.61291564
2014-03-09 13:05:49.208,9.576807,-0.4213795,0.6512229
2014-03-09 13:05:49.228,9.5385,-0.38307226,0.45968673
2014-03-09 13:05:49.248,9.691729,-0.4213795,0.2681506
2014-03-09 13:05:49.257,9.691729,-0.30645782,0.11492168
2014-03-09 13:05:49.277,9.730036,-0.34476504,0.34476504
2014-03-09 13:05:49.289,9.768343,-0.30645782,0.6512229
2014-03-09 13:05:49.309,9.653421,-0.2681506,0.6895301
2014-03-09 13:05:49.329,9.5385,-0.22984336,0.45968673
2014-03-09 13:05:49.339,9.500193,-0.2681506,0.45968673
2014-03-09 13:05:49.358,9.193734,-0.22984336,0.45968673
2014-03-09 13:05:49.369,8.963891,-0.15322891,0.6895301
2014-03-09 13:05:49.389,9.232041,-0.19153613,0.7278373
2014-03-09 13:05:49.400,9.500193,-0.076614454,0.61291564
2014-03-09 13:05:49.421,9.5385,0.0,0.6895301
2014-03-09 13:05:49.439,9.155427,-0.076614454,0.91937345
2014-03-09 13:05:49.449,8.963891,-0.38307226,0.842759
2014-03-09 13:05:49.467,9.576807,-0.49799395,0.7661445
2014-03-09 13:05:49.477,9.844957,-0.49799395,0.842759
2014-03-09 13:05:49.498,9.768343,-0.11492168,0.9576807
2014-03-09 13:05:49.517,9.270349,0.038307227,0.8810662
2014-03-09 13:05:49.527,9.5385,0.15322891,0.5746084
2014-03-09 13:05:49.548,9.844957,0.2681506,0.61291564
2014-03-09 13:05:49.558,9.461885,-0.22984336,0.8810662
2014-03-09 13:05:49.578,9.385271,-0.80445176,0.80445176
2014-03-09 13:05:49.588,9.385271,-0.91937345,0.4213795
2014-03-09 13:05:49.611,9.308656,-0.8810662,0.38307226
2014-03-09 13:05:49.629,9.385271,-0.5746084,0.842759
2014-03-09 13:05:49.640,9.576807,-0.38307226,0.80445176
2014-03-09 13:05:49.658,9.576807,-0.038307227,0.6512229
2014-03-09 13:05:49.669,9.844957,-0.11492168,1.0342951
2014-03-09 13:05:49.689,9.5385,-0.34476504,1.1109096
2014-03-09 13:05:49.709,9.155427,-0.5363012,0.7661445
2014-03-09 13:05:49.718,9.308656,-0.61291564,0.6512229
2014-03-09 13:05:49.738,9.500193,-0.6512229,0.38307226
2014-03-09 13:05:49.749,9.691729,-0.5363012,0.7278373
2014-03-09 13:05:49.769,9.691729,-0.7661445,0.91937345
2014-03-09 13:05:49.789,9.423578,-0.5746084,0.9959879
2014-03-09 13:05:49.800,9.270349,-0.34476504,0.45968673
2014-03-09 13:05:49.818,9.423578,-0.2681506,0.5746084
2014-03-09 13:05:49.829,9.691729,-0.30645782,0.7661445
2014-03-09 13:05:49.850,9.80665,-0.5363012,0.5363012
2014-03-09 13:05:49.860,9.730036,-0.7278373,0.6512229
2014-03-09 13:05:49.878,9.653421,-0.80445176,0.9576807
2014-03-09 13:05:49.900,9.5385,-0.7661445,0.8810662
2014-03-09 13:05:49.910,9.232041,-0.5746084,0.842759
2014-03-09 13:05:49.930,9.270349,-0.34476504,0.5746084
2014-03-09 13:05:49.938,9.768343,-0.22984336,0.91937345
2014-03-09 13:05:49.958,9.844957,0.0,0.80445176
2014-03-09 13:05:49.978,9.500193,0.2681506,0.34476504
2014-03-09 13:05:49.989,9.193734,0.45968673,0.19153613
2014-03-09 13:05:50.010,9.270349,0.45968673,0.30645782
2014-03-09 13:05:50.018,9.461885,0.30645782,0.45968673
2014-03-09 13:05:50.038,9.500193,-0.038307227,0.38307226
2014-03-09 13:05:50.050,9.423578,-0.4213795,0.61291564
2014-03-09 13:05:50.069,8.887277,-0.8810662,1.0726024
2014-03-09 13:05:50.092,8.42759,-1.1109096,1.340753
2014-03-09 13:05:50.103,8.465898,-0.8810662,1.4556746
2014-03-09 13:05:50.117,9.346964,-0.4213795,1.0726024
2014-03-09 13:05:50.128,10.036493,-0.076614454,0.8810662
2014-03-09 13:05:50.149,10.496181,0.49799395,0.5746084
2014-03-09 13:05:50.168,10.151415,0.80445176,-0.038307227
2014-03-09 13:05:50.177,9.423578,0.91937345,-0.5746084
2014-03-09 13:05:50.198,9.078813,0.91937345,-0.61291564
2014-03-09 13:05:50.212,9.615114,0.6895301,-0.076614454
2014-03-09 13:05:50.229,10.228029,0.34476504,0.4213795
2014-03-09 13:05:50.250,10.611102,0.0,0.5363012
2014-03-09 13:05:50.258,10.457873,-0.38307226,0.6512229
2014-03-09 13:05:50.278,9.921572,-0.61291564,0.61291564
2014-03-09 13:05:50.289,9.385271,-0.6895301,0.45968673
2014-03-09 13:05:50.309,8.465898,-0.49799395,0.22984336
2014-03-09 13:05:50.318,8.734048,-0.4213795,0.4213795
2014-03-09 13:05:50.338,9.461885,-0.30645782,0.61291564
2014-03-09 13:05:50.358,9.921572,0.19153613,0.49799395
2014-03-09 13:05:50.369,9.691729,0.61291564,0.34476504
2014-03-09 13:05:50.389,9.768343,0.6512229,0.49799395
2014-03-09 13:05:50.399,9.270349,0.5363012,0.9576807
2014-03-09 13:05:50.418,9.883265,0.45968673,1.340753
2014-03-09 13:05:50.438,10.6877165,-0.038307227,0.80445176
2014-03-09 13:05:50.449,9.615114,-0.49799395,0.2681506
2014-03-09 13:05:50.472,7.6231384,-0.7661445,0.2681506
2014-03-09 13:05:50.492,7.6231384,-0.7661445,0.5363012
2014-03-09 13:05:50.514,9.193734,-0.6512229,1.0726024
2014-03-09 13:05:50.515,10.381259,-0.842759,1.685518
2014-03-09 13:05:50.528,10.342952,-1.0342951,1.4173675
2014-03-09 13:05:50.549,9.730036,-0.842759,0.7661445
2014-03-09 13:05:50.557,8.963891,-0.6512229,0.076614454
2014-03-09 13:05:50.577,8.695741,0.11492168,-0.22984336
2014-03-09 13:05:50.587,9.385271,0.842759,-0.4213795
2014-03-09 13:05:50.607,10.457873,1.2641385,-0.22984336
2014-03-09 13:05:50.628,10.955867,0.6512229,-0.4213795
2014-03-09 13:05:50.637,10.764331,-0.22984336,0.076614454
2014-03-09 13:05:50.657,9.883265,-0.80445176,0.61291564
2014-03-09 13:05:50.668,8.542512,-0.9959879,0.91937345
2014-03-09 13:05:50.688,7.5848308,-0.7278373,0.7661445
2014-03-09 13:05:50.701,8.236053,-0.5363012,1.0342951
2014-03-09 13:05:50.718,8.925584,-0.22984336,1.1109096
2014-03-09 13:05:50.738,9.385271,0.076614454,1.0726024
2014-03-09 13:05:50.750,9.653421,0.5746084,0.7278373
2014-03-09 13:05:50.770,9.883265,0.91937345,0.4213795
2014-03-09 13:05:50.780,9.883265,1.1109096,0.11492168
2014-03-09 13:05:50.801,9.653421,0.80445176,0.34476504
2014-03-09 13:05:50.820,9.615114,0.34476504,0.7278373
2014-03-09 13:05:50.830,9.959879,0.0,1.0342951
2014-03-09 13:05:50.851,9.998186,-0.2681506,0.91937345
2014-03-09 13:05:50.860,9.80665,-0.30645782,0.6895301
2014-03-09 13:05:50.878,9.5385,0.0,0.4213795
2014-03-09 13:05:50.890,9.576807,0.19153613,-0.22984336
2014-03-09 13:05:50.908,9.576807,0.11492168,-0.4213795
2014-03-09 13:05:50.927,9.576807,-0.076614454,-0.11492168
2014-03-09 13:05:50.937,9.385271,-0.038307227,0.11492168
2014-03-09 13:05:50.957,9.385271,0.11492168,0.38307226
2014-03-09 13:05:50.968,9.193734,0.4213795,0.5746084
2014-03-09 13:05:50.988,9.346964,0.61291564,0.38307226
2014-03-09 13:05:51.008,9.615114,0.61291564,0.19153613
2014-03-09 13:05:51.017,9.615114,0.34476504,0.038307227
2014-03-09 13:05:51.037,9.308656,-0.11492168,0.076614454
2014-03-09 13:05:51.049,9.193734,-0.30645782,0.19153613
2014-03-09 13:05:51.068,9.270349,-0.15322891,0.38307226
2014-03-09 13:05:51.088,9.5385,0.11492168,0.45968673
2014-03-09 13:05:51.098,9.921572,0.45968673,0.5363012
2014-03-09 13:05:51.117,10.036493,0.6512229,0.4213795
2014-03-09 13:05:51.128,9.730036,0.6895301,0.45968673
2014-03-09 13:05:51.152,9.423578,0.6512229,0.49799395
2014-03-09 13:05:51.161,9.346964,0.80445176,0.4213795
2014-03-09 13:05:51.178,9.5385,0.9576807,0.45968673
2014-03-09 13:05:51.198,9.653421,0.91937345,0.5746084
2014-03-09 13:05:51.209,9.959879,0.80445176,0.45968673
2014-03-09 13:05:51.229,10.036493,0.5363012,0.49799395
2014-03-09 13:05:51.238,9.959879,0.4213795,0.45968673
2014-03-09 13:05:51.258,9.423578,0.076614454,0.38307226
2014-03-09 13:05:51.278,8.963891,0.0,0.19153613
2014-03-09 13:05:51.289,9.002198,0.2681506,0.22984336
2014-03-09 13:05:51.327,9.385271,0.49799395,0.5746084
2014-03-09 13:05:51.335,9.193734,0.5746084,0.5746084
2014-03-09 13:05:51.345,9.040505,0.45968673,0.5746084
2014-03-09 13:05:51.361,9.232041,-0.076614454,0.49799395
2014-03-09 13:05:51.370,9.232041,-0.45968673,0.6512229
2014-03-09 13:05:51.390,9.078813,-0.5363012,0.842759
2014-03-09 13:05:51.399,9.308656,-0.2681506,0.842759
2014-03-09 13:05:51.418,10.342952,-0.15322891,0.91937345
2014-03-09 13:05:51.429,10.611102,-0.076614454,0.80445176
2014-03-09 13:05:51.449,9.500193,0.038307227,0.4213795
2014-03-09 13:05:51.469,8.848969,-0.038307227,0.2681506
2014-03-09 13:05:51.478,9.155427,-0.11492168,0.5363012
2014-03-09 13:05:51.499,9.844957,-0.22984336,0.842759
2014-03-09 13:05:51.509,9.883265,-0.15322891,0.842759
2014-03-09 13:05:51.529,9.615114,0.0,0.6512229
2014-03-09 13:05:51.549,9.155427,0.15322891,0.34476504
2014-03-09 13:05:51.559,8.963891,0.38307226,0.15322891
2014-03-09 13:05:51.578,9.002198,0.6512229,0.30645782
2014-03-09 13:05:51.591,9.461885,0.7661445,0.6895301
2014-03-09 13:05:51.609,9.5385,0.9959879,0.7278373
2014-03-09 13:05:51.620,9.346964,1.3024458,0.6512229
2014-03-09 13:05:51.638,9.461885,1.4939818,0.5363012
2014-03-09 13:05:51.650,9.998186,1.6472107,0.30645782
2014-03-09 13:05:51.667,10.113108,1.6472107,0.11492168
2014-03-09 13:05:51.687,9.80665,1.7621324,-0.11492168
2014-03-09 13:05:51.698,9.80665,1.6472107,-0.19153613
2014-03-09 13:05:51.717,9.921572,1.0342951,-0.076614454
2014-03-09 13:05:51.737,9.883265,0.49799395,0.30645782
2014-03-09 13:05:51.749,9.653421,0.076614454,0.7278373
2014-03-09 13:05:51.768,9.346964,-0.2681506,0.91937345
2014-03-09 13:05:51.777,9.155427,-0.49799395,1.1492168
2014-03-09 13:05:51.801,9.193734,-0.6895301,1.3024458
2014-03-09 13:05:51.818,9.308656,-0.6895301,1.3790601
2014-03-09 13:05:51.830,9.385271,-0.6512229,0.9959879
2014-03-09 13:05:51.852,9.346964,-0.49799395,0.61291564
2014-03-09 13:05:51.861,9.423578,-0.15322891,0.4213795
2014-03-09 13:05:51.881,9.385271,-0.038307227,0.30645782
2014-03-09 13:05:51.891,9.5385,-0.22984336,0.34476504
2014-03-09 13:05:51.908,9.500193,-0.45968673,0.6512229
2014-03-09 13:05:51.928,9.193734,-0.49799395,0.6512229
2014-03-09 13:05:51.937,9.308656,0.038307227,0.6512229
2014-03-09 13:05:51.957,9.653421,0.61291564,0.6895301
2014-03-09 13:05:51.968,10.0748005,1.1109096,0.7661445
2014-03-09 13:05:51.989,10.266336,1.340753,0.7661445
2014-03-09 13:05:52.001,10.0748005,1.340753,0.6895301
2014-03-09 13:05:52.019,9.844957,1.0726024,0.6895301
2014-03-09 13:05:52.039,9.423578,0.7278373,0.7278373
2014-03-09 13:05:52.051,9.423578,0.5363012,0.6895301
2014-03-09 13:05:52.071,9.5385,0.4213795,0.6895301
2014-03-09 13:05:52.083,9.308656,0.38307226,0.7278373
2014-03-09 13:05:52.100,9.040505,0.30645782,0.6895301
2014-03-09 13:05:52.117,9.232041,0.22984336,0.7661445
2014-03-09 13:05:52.128,9.232041,0.15322891,0.6895301
2014-03-09 13:05:52.151,8.848969,0.038307227,0.7661445
2014-03-09 13:05:52.157,8.810662,0.038307227,0.91937345
2014-03-09 13:05:52.177,9.193734,0.076614454,0.9959879
2014-03-09 13:05:52.203,9.691729,0.2681506,0.9576807
2014-03-09 13:05:52.209,10.304645,0.34476504,0.8810662
2014-03-09 13:05:52.230,10.419566,0.076614454,0.5746084
2014-03-09 13:05:52.240,9.844957,-0.15322891,0.19153613
2014-03-09 13:05:52.258,8.963891,0.038307227,0.22984336
2014-03-09 13:05:52.278,8.236053,0.5363012,0.4213795
2014-03-09 13:05:52.289,7.967903,0.9959879,0.7661445
2014-03-09 13:05:52.309,8.121132,1.4173675,1.0342951
2014-03-09 13:05:52.319,8.963891,1.7621324,1.3790601
2014-03-09 13:05:52.338,9.576807,1.8387469,1.3024458
2014-03-09 13:05:52.350,9.385271,1.8387469,0.91937345
2014-03-09 13:05:52.369,8.887277,1.9153614,0.842759
2014-03-09 13:05:52.389,8.465898,2.1068976,0.61291564
2014-03-09 13:05:52.400,8.350976,2.566584,0.80445176
2014-03-09 13:05:52.418,8.925584,2.834735,1.1492168
2014-03-09 13:05:52.429,9.232041,2.6048915,1.340753
2014-03-09 13:05:52.449,9.040505,2.336741,1.8004397
2014-03-09 13:05:52.469,8.772355,2.2218192,1.7621324
2014-03-09 13:05:52.479,8.6574335,2.030283,1.6472107
2014-03-09 13:05:52.499,8.580819,1.6472107,1.7621324
2014-03-09 13:05:52.509,8.887277,1.2258313,2.1068976
2014-03-09 13:05:52.529,9.232041,0.80445176,2.6431987
2014-03-09 13:05:52.540,9.270349,0.34476504,2.9113493
2014-03-09 13:05:52.563,9.423578,-0.15322891,3.5625722
2014-03-09 13:05:52.578,9.998186,-0.2681506,3.6391866
2014-03-09 13:05:52.589,10.496181,-0.61291564,3.371036
2014-03-09 13:05:52.609,11.18571,-0.80445176,2.7581203
2014-03-09 13:05:52.619,11.18571,-0.5363012,2.0685902
2014-03-09 13:05:52.638,10.726024,-0.30645782,1.4556746
2014-03-09 13:05:52.658,10.266336,0.15322891,1.5705963
2014-03-09 13:05:52.669,9.768343,0.45968673,1.9153614
2014-03-09 13:05:52.689,9.615114,0.9576807,1.9536686
2014-03-09 13:05:52.700,9.768343,1.2641385,1.9536686
2014-03-09 13:05:52.722,9.653421,1.3790601,1.8004397
2014-03-09 13:05:52.729,9.423578,1.1109096,1.7238252
2014-03-09 13:05:52.750,9.500193,0.9959879,1.8770541
2014-03-09 13:05:52.769,9.615114,0.9576807,2.183512
2014-03-09 13:05:52.781,9.500193,0.80445176,2.681506
2014-03-09 13:05:52.800,9.730036,0.5363012,2.6048915
2014-03-09 13:05:52.808,9.80665,0.5746084,2.4133554
2014-03-09 13:05:52.828,9.500193,0.842759,2.528277
2014-03-09 13:05:52.848,9.270349,1.2641385,2.566584
2014-03-09 13:05:52.857,8.963891,1.3024458,2.1068976
2014-03-09 13:05:52.877,8.810662,1.4939818,2.1068976
2014-03-09 13:05:52.888,8.963891,1.6089035,2.2218192
2014-03-09 13:05:52.908,9.11712,1.532289,2.2601264
2014-03-09 13:05:52.928,9.461885,1.4556746,1.9536686
2014-03-09 13:05:52.939,9.615114,1.1109096,2.2218192
2014-03-09 13:05:52.958,9.232041,0.842759,2.528277
2014-03-09 13:05:52.968,9.155427,0.7661445,2.681506
2014-03-09 13:05:52.988,9.423578,1.0342951,2.834735
2014-03-09 13:05:52.997,9.500193,1.340753,2.9879637
2014-03-09 13:05:53.017,9.308656,1.4173675,3.9839516
2014-03-09 13:05:53.037,9.691729,1.1492168,4.4819455
2014-03-09 13:05:53.048,9.653421,1.1492168,4.2904096
2014-03-09 13:05:53.068,9.653421,1.2641385,4.175488
2014-03-09 13:05:53.077,9.270349,1.3024458,4.060566
2014-03-09 13:05:53.097,9.155427,1.8387469,4.673482
2014-03-09 13:05:53.117,9.232041,2.0685902,6.0142345
2014-03-09 13:05:53.128,10.726024,-0.19153613,3.4859576
2014-03-09 13:05:53.153,10.649409,-1.4173675,1.8770541
2014-03-09 13:05:53.157,10.764331,-2.4133554,1.3024458
2014-03-09 13:05:53.177,11.530476,-3.715801,-0.34476504
2014-03-09 13:05:53.191,11.377247,-3.7541082,-1.8004397
2014-03-09 13:05:53.209,11.415554,-3.1794999,-3.4093432
2014-03-09 13:05:53.229,11.492168,-2.2601264,-5.056554
2014-03-09 13:05:53.239,10.228029,-1.3024458,-4.7884035
2014-03-09 13:05:53.258,9.500193,-1.340753,-4.175488
2014-03-09 13:05:53.269,9.002198,-1.2641385,-4.2904096
2014-03-09 13:05:53.289,9.040505,-0.9959879,-3.2944214
2014-03-09 13:05:53.309,10.113108,-1.1875241,-2.4516625
2014-03-09 13:05:53.320,10.726024,-1.340753,-2.1452048
2014-03-09 13:05:53.342,10.457873,-1.8770541,-1.9536686
2014-03-09 13:05:53.354,9.576807,-2.566584,-2.183512
2014-03-09 13:05:53.368,8.274361,-3.1411927,-2.3750482
2014-03-09 13:05:53.388,7.1634517,-3.0262709,-2.4516625
2014-03-09 13:05:53.400,6.703765,-2.3750482,-2.2218192
2014-03-09 13:05:53.419,7.0102224,-1.6472107,-1.5705963
2014-03-09 13:05:53.429,8.542512,-2.681506,3.1028855
2014-03-09 13:05:53.449,10.879252,-2.1068976,5.592855
2014-03-09 13:05:53.459,6.5122285,0.91937345,-9.155427
2014-03-09 13:05:53.479,4.213795,2.0685902,-2.719813
2014-03-09 13:05:53.500,4.1371803,2.0685902,-1.4939818
2014-03-09 13:05:53.510,6.5122285,2.719813,-0.80445176
2014-03-09 13:05:53.527,11.798626,3.064578,-0.4213795
2014-03-09 13:05:53.539,11.990162,1.3024458,-0.842759
2014-03-09 13:05:53.559,10.304645,0.45968673,1.2258313
2014-03-09 13:05:53.579,9.040505,-0.19153613,0.7278373
2014-03-09 13:05:53.589,8.542512,-0.038307227,0.842759
2014-03-09 13:05:53.608,9.078813,-0.038307227,0.6512229
2014-03-09 13:05:53.619,9.768343,-0.5363012,-0.2681506
2014-03-09 13:05:53.639,9.500193,-1.0726024,-0.91937345
2014-03-09 13:05:53.650,8.887277,-1.2641385,-0.9959879
2014-03-09 13:05:53.669,9.040505,-1.6089035,-1.3024458
2014-03-09 13:05:53.688,10.228029,-2.030283,-3.7924154
2014-03-09 13:05:53.700,11.109096,-1.4173675,-4.1371803
2014-03-09 13:05:53.719,10.457873,-1.2641385,-0.49799395
2014-03-09 13:05:53.729,10.228029,-1.0342951,1.0726024
2014-03-09 13:05:53.749,10.228029,-0.7278373,1.4556746
2014-03-09 13:05:53.769,9.155427,-0.842759,1.0726024
2014-03-09 13:05:53.779,8.274361,-0.7278373,1.4556746
2014-03-09 13:05:53.801,8.082825,-0.61291564,1.4556746
2014-03-09 13:05:53.812,8.504205,-0.34476504,0.9576807
2014-03-09 13:05:53.829,9.040505,-0.038307227,0.7278373
2014-03-09 13:05:53.850,9.346964,0.22984336,0.80445176
2014-03-09 13:05:53.859,9.385271,0.49799395,0.7661445
2014-03-09 13:05:53.879,9.461885,0.34476504,0.6895301
2014-03-09 13:05:53.891,9.423578,0.038307227,0.5746084
2014-03-09 13:05:53.907,9.576807,-0.30645782,0.49799395
2014-03-09 13:05:53.918,9.615114,-0.7278373,0.45968673
2014-03-09 13:05:53.937,9.500193,-1.2641385,0.45968673
2014-03-09 13:05:53.958,9.270349,-1.685518,0.5363012
2014-03-09 13:05:53.967,9.385271,-1.685518,0.6895301
2014-03-09 13:05:53.987,9.730036,-1.3790601,0.9959879
2014-03-09 13:05:53.997,9.883265,-1.2258313,1.0342951
2014-03-09 13:05:54.017,9.80665,-1.0726024,0.91937345
2014-03-09 13:05:54.038,9.730036,-1.0726024,1.0342951
2014-03-09 13:05:54.048,9.730036,-1.0342951,1.1109096
2014-03-09 13:05:54.067,9.653421,-0.8810662,1.1875241
2014-03-09 13:05:54.078,9.423578,-0.61291564,1.340753
2014-03-09 13:05:54.102,9.270349,-0.38307226,1.3024458
2014-03-09 13:05:54.118,9.385271,-0.22984336,1.0726024
2014-03-09 13:05:54.127,9.423578,-0.11492168,0.9959879
2014-03-09 13:05:54.141,9.270349,0.0,0.9959879
2014-03-09 13:05:54.159,9.385271,0.15322891,0.842759
2014-03-09 13:05:54.185,9.5385,0.15322891,0.8810662
2014-03-09 13:05:54.213,9.844957,0.038307227,0.9959879
2014-03-09 13:05:54.235,9.959879,-0.11492168,1.0726024
2014-03-09 13:05:54.258,9.80665,-0.34476504,1.2258313
2014-03-09 13:05:54.259,9.615114,-0.45968673,1.2641385
2014-03-09 13:05:54.269,9.691729,-0.5363012,1.4173675
2014-03-09 13:05:54.273,9.691729,-0.6512229,1.4556746
2014-03-09 13:05:54.287,9.691729,-0.6895301,1.685518
2014-03-09 13:05:54.307,9.461885,-0.6512229,1.685518
2014-03-09 13:05:54.317,9.270349,-0.5363012,1.685518
2014-03-09 13:05:54.338,9.232041,-0.49799395,1.6089035
2014-03-09 13:05:54.368,9.346964,-0.4213795,1.6472107
2014-03-09 13:05:54.381,9.423578,-0.4213795,1.6089035
2014-03-09 13:05:54.399,9.423578,-0.38307226,1.6089035
2014-03-09 13:05:54.419,9.270349,-0.45968673,1.5705963
2014-03-09 13:05:54.429,9.11712,-0.4213795,1.6472107
2014-03-09 13:05:54.449,9.193734,-0.4213795,1.7621324
2014-03-09 13:05:54.460,9.270349,-0.34476504,1.9153614
2014-03-09 13:05:54.479,9.078813,-0.2681506,1.9536686
2014-03-09 13:05:54.499,9.078813,-0.4213795,1.9536686
2014-03-09 13:05:54.510,9.193734,-0.5363012,1.9536686
2014-03-09 13:05:54.528,9.461885,-0.5746084,1.9919758
2014-03-09 13:05:54.539,9.844957,-0.5363012,2.0685902
2014-03-09 13:05:54.559,9.921572,-0.45968673,2.030283
2014-03-09 13:05:54.570,9.921572,-0.4213795,1.9153614
2014-03-09 13:05:54.588,9.5385,-0.30645782,1.7621324
2014-03-09 13:05:54.608,9.270349,-0.076614454,1.7238252
2014-03-09 13:05:54.619,9.078813,0.0,1.8004397
2014-03-09 13:05:54.639,8.963891,0.11492168,1.9536686
2014-03-09 13:05:54.650,8.963891,0.19153613,2.0685902
2014-03-09 13:05:54.668,9.040505,0.22984336,2.2218192
2014-03-09 13:05:54.689,9.193734,-0.11492168,2.336741
2014-03-09 13:05:54.699,9.768343,-0.8810662,2.7964275
2014-03-09 13:05:54.719,10.266336,-1.4173675,3.1411927
2014-03-09 13:05:54.729,9.921572,-1.7238252,3.064578
2014-03-09 13:05:54.750,9.270349,-1.7238252,2.6431987
2014-03-09 13:05:54.759,8.734048,-1.5705963,2.2218192
2014-03-09 13:05:54.779,8.312668,-1.1875241,2.1068976
2014-03-09 13:05:54.800,7.6231384,-0.30645782,2.528277
2014-03-09 13:05:54.811,8.542512,-0.11492168,3.064578
2014-03-09 13:05:54.832,9.078813,-0.038307227,3.0262709
2014-03-09 13:05:54.839,8.963891,-0.19153613,2.7964275
2014-03-09 13:05:54.859,8.887277,-0.49799395,2.6048915
2014-03-09 13:05:54.879,9.423578,-0.9959879,2.4516625
2014-03-09 13:05:54.890,9.80665,-1.3790601,2.566584
2014-03-09 13:05:54.907,9.385271,-1.7238252,2.873042
2014-03-09 13:05:54.917,8.619126,-1.9153614,3.064578
2014-03-09 13:05:54.938,8.389283,-1.8770541,2.9879637
2014-03-09 13:05:54.958,8.312668,-1.4939818,2.6431987
2014-03-09 13:05:54.967,8.925584,-0.7661445,2.528277
2014-03-09 13:05:54.987,9.921572,-0.30645782,2.4133554
2014-03-09 13:05:54.999,9.80665,-0.38307226,2.7581203
2014-03-09 13:05:55.048,9.155427,-0.38307226,3.1794999
2014-03-09 13:05:55.051,8.810662,-0.5363012,2.873042
2014-03-09 13:05:55.056,8.504205,-0.6512229,2.681506
2014-03-09 13:05:55.067,8.695741,-0.8810662,2.7581203
2014-03-09 13:05:55.078,9.270349,-0.9576807,2.4516625
2014-03-09 13:05:55.103,9.308656,-0.9576807,2.2601264
2014-03-09 13:05:55.107,8.810662,-1.2258313,2.2218192
2014-03-09 13:05:55.128,8.963891,-1.1875241,2.2984335
2014-03-09 13:05:55.148,9.461885,-1.2641385,2.6431987
2014-03-09 13:05:55.158,10.266336,-1.6089035,3.217807
2014-03-09 13:05:55.178,10.419566,-1.6089035,3.217807
2014-03-09 13:05:55.190,9.615114,-1.3790601,2.9113493
2014-03-09 13:05:55.208,8.925584,-0.80445176,2.9879637
2014-03-09 13:05:55.218,9.002198,-0.4213795,3.217807
2014-03-09 13:05:55.239,9.155427,-0.22984336,3.715801
2014-03-09 13:05:55.259,9.346964,-0.22984336,3.2561142
2014-03-09 13:05:55.269,9.80665,-0.22984336,2.9879637
2014-03-09 13:05:55.288,10.304645,-0.6512229,3.2561142
2014-03-09 13:05:55.315,10.572795,-1.4556746,2.681506
2014-03-09 13:05:55.320,10.228029,-1.7621324,2.834735
2014-03-09 13:05:55.339,9.921572,-1.6472107,2.7581203
2014-03-09 13:05:55.349,10.151415,-1.5705963,2.9496565
2014-03-09 13:05:55.379,10.342952,-1.1492168,2.873042
2014-03-09 13:05:55.381,10.457873,-1.0342951,2.6048915
2014-03-09 13:05:55.400,10.151415,-1.1875241,2.6431987
2014-03-09 13:05:55.421,9.998186,-1.1875241,2.9496565
2014-03-09 13:05:55.440,9.155427,-1.340753,2.9496565
2014-03-09 13:05:55.468,8.42759,-1.340753,2.9113493
2014-03-09 13:05:55.472,8.159439,-1.1875241,2.719813
2014-03-09 13:05:55.479,8.734048,-0.80445176,2.681506
2014-03-09 13:05:55.487,9.078813,-0.5363012,3.1028855
2014-03-09 13:05:55.507,9.232041,-0.38307226,3.5625722
2014-03-09 13:05:55.527,9.615114,-0.5746084,3.9839516
2014-03-09 13:05:55.538,9.959879,-0.6512229,4.2904096
2014-03-09 13:05:55.558,10.0748005,-0.34476504,4.2521024
2014-03-09 13:05:55.567,9.883265,-0.49799395,4.175488
2014-03-09 13:05:55.588,9.730036,-1.340753,4.213795
2014-03-09 13:05:55.610,9.270349,-1.8004397,4.4819455
2014-03-09 13:05:55.620,8.734048,-1.3790601,4.7884035
2014-03-09 13:05:55.639,9.576807,-0.6895301,5.4779334
2014-03-09 13:05:55.648,11.377247,-0.6512229,3.9456444
2014-03-09 13:05:55.668,11.9135475,0.0,0.7661445
2014-03-09 13:05:55.679,10.726024,-0.49799395,-1.5705963
2014-03-09 13:05:55.700,9.385271,-1.3790601,-0.9576807
2014-03-09 13:05:55.719,9.461885,-0.7278373,-2.183512
2014-03-09 13:05:55.728,9.959879,-0.2681506,-3.0262709
2014-03-09 13:05:55.748,9.80665,-1.1492168,-3.1028855
2014-03-09 13:05:55.760,9.193734,-2.4899697,-2.834735
2014-03-09 13:05:55.779,8.197746,-3.3327289,-2.030283
2014-03-09 13:05:55.801,7.6231384,-3.6008794,-1.3790601
2014-03-09 13:05:55.809,7.469909,-3.8307228,-1.1875241
2014-03-09 13:05:55.828,8.925584,-3.8307228,-1.8387469
2014-03-09 13:05:55.839,10.342952,-3.7924154,-2.9113493
2014-03-09 13:05:55.860,10.496181,-3.3327289,-3.2561142
2014-03-09 13:05:55.877,9.002198,-2.9113493,-2.873042
2014-03-09 13:05:55.887,7.431602,-2.183512,-1.8770541
2014-03-09 13:05:55.907,7.0102224,-1.1109096,-1.340753
2014-03-09 13:05:55.918,7.0485296,0.076614454,-1.2258313
2014-03-09 13:05:55.938,7.5082164,0.9959879,-1.0342951
2014-03-09 13:05:55.947,7.967903,0.7661445,-1.1109096
2014-03-09 13:05:55.967,7.776367,-0.5363012,-0.9576807
2014-03-09 13:05:55.987,7.431602,-1.4939818,-1.6089035
2014-03-09 13:05:56.004,7.431602,-1.9153614,-2.2984335
2014-03-09 13:05:56.019,7.6614456,-1.685518,-2.528277
2014-03-09 13:05:56.027,7.8529816,-1.1875241,-2.1452048
2014-03-09 13:05:56.048,7.73806,-0.9576807,-1.0726024
2014-03-09 13:05:56.067,7.8146744,-1.3024458,-0.8810662
2014-03-09 13:05:56.077,8.197746,-1.7621324,-1.4173675
2014-03-09 13:05:56.097,8.504205,-1.9153614,-1.9153614
2014-03-09 13:05:56.107,8.887277,-1.8004397,-1.9536686
2014-03-09 13:05:56.127,9.040505,-1.8387469,-1.4939818
2014-03-09 13:05:56.138,8.963891,-1.8004397,-1.3790601
2014-03-09 13:05:56.157,9.308656,-1.4173675,-1.7238252
2014-03-09 13:05:56.177,9.730036,-1.1492168,-2.4133554
2014-03-09 13:05:56.187,9.998186,-1.3024458,-2.719813
2014-03-09 13:05:56.207,9.308656,-1.4556746,-2.9113493
2014-03-09 13:05:56.218,8.810662,-1.340753,-2.2984335
2014-03-09 13:05:56.238,8.6574335,-1.6472107,-1.7238252
2014-03-09 13:05:56.261,8.772355,-1.7238252,-2.566584
2014-03-09 13:05:56.269,8.465898,-1.6089035,-3.5625722
2014-03-09 13:05:56.288,8.159439,-1.1492168,-3.5625722
2014-03-09 13:05:56.299,8.350976,-0.22984336,-3.6008794
2014-03-09 13:05:56.319,8.0445175,-0.9959879,-3.7541082
2014-03-09 13:05:56.339,7.1251445,-0.9959879,-3.5242648
2014-03-09 13:05:56.349,5.592855,-0.5746084,-3.4476504
2014-03-09 13:05:56.368,5.66947,-0.2681506,-4.098873
2014-03-09 13:05:56.379,6.3206925,0.34476504,-5.094861
2014-03-09 13:05:56.400,6.742072,0.91937345,-5.2863975
2014-03-09 13:05:56.408,7.1251445,1.4556746,-6.0142345
2014-03-09 13:05:56.428,7.431602,1.6472107,-6.8569937
2014-03-09 13:05:56.448,7.201759,1.4939818,-6.9719152
2014-03-09 13:05:56.459,6.244078,1.1875241,-7.393295
2014-03-09 13:05:56.479,5.094861,1.340753,-7.929596
2014-03-09 13:05:56.488,5.7843914,0.49799395,-7.929596
2014-03-09 13:05:56.508,6.205771,0.34476504,-8.274361
2014-03-09 13:05:56.521,6.703765,0.038307227,-9.5385
2014-03-09 13:05:56.540,7.5082164,-1.1875241,-10.266336
2014-03-09 13:05:56.560,6.435614,-1.9919758,-10.0748005
2014-03-09 13:05:56.572,5.171476,-2.4516625,-9.576807
2014-03-09 13:05:56.588,5.3247046,-1.9919758,-8.274361
2014-03-09 13:05:56.601,16.74026,-3.1411927,-16.242264
2014-03-09 13:05:56.620,16.85518,-7.6231384,1.4556746
2014-03-09 13:05:56.641,2.9879637,-8.848969,-0.4213795
2014-03-09 13:05:56.651,13.215993,0.0,-3.3327289
2014-03-09 13:05:56.674,2.9496565,-1.8387469,-1.2258313
2014-03-09 13:05:56.679,8.887277,1.532289,0.15322891
2014-03-09 13:05:56.700,10.649409,2.2984335,0.038307227
2014-03-09 13:05:56.719,9.040505,0.5746084,-2.7581203
2014-03-09 13:05:56.729,8.0445175,0.91937345,-4.213795
2014-03-09 13:05:56.753,6.9719152,2.183512,-4.2521024
2014-03-09 13:05:56.760,7.5082164,3.5625722,-2.9496565
2014-03-09 13:05:56.779,8.6574335,2.9879637,-1.2258313
2014-03-09 13:05:56.801,8.695741,1.3790601,0.038307227
2014-03-09 13:05:56.811,8.619126,0.49799395,0.7278373
2014-03-09 13:05:56.828,9.653421,-0.4213795,1.340753
2014-03-09 13:05:56.839,9.921572,-1.6472107,1.532289
2014-03-09 13:05:56.859,10.113108,-1.6472107,1.7238252
2014-03-09 13:05:56.870,10.955867,-1.9536686,1.7621324
2014-03-09 13:05:56.891,10.91756,-2.4133554,2.1452048
2014-03-09 13:05:56.910,10.036493,-1.7238252,1.9536686
2014-03-09 13:05:56.917,9.155427,-0.11492168,0.7661445
2014-03-09 13:05:56.937,8.236053,1.340753,0.15322891
2014-03-09 13:05:56.947,7.3166804,2.1068976,0.7661445
2014-03-09 13:05:56.968,6.2823853,1.9153614,1.0342951
2014-03-09 13:05:56.987,6.5122285,1.0726024,0.9576807
2014-03-09 13:05:57.000,7.3549876,-0.038307227,1.0726024
2014-03-09 13:05:57.018,8.42759,-0.6512229,0.8810662
2014-03-09 13:05:57.027,9.500193,-0.842759,0.842759
2014-03-09 13:05:57.048,10.572795,-0.61291564,1.0342951
2014-03-09 13:05:57.058,9.653421,-0.7278373,1.6472107
2014-03-09 13:05:57.078,8.350976,-0.8810662,1.3790601
2014-03-09 13:05:57.098,8.159439,-0.45968673,0.80445176
2014-03-09 13:05:57.107,8.350976,0.30645782,0.8810662
2014-03-09 13:05:57.127,8.389283,0.45968673,1.1875241
2014-03-09 13:05:57.138,8.082825,0.80445176,0.6512229
2014-03-09 13:05:57.158,8.159439,1.9536686,-0.6512229
2014-03-09 13:05:57.178,7.5082164,2.873042,-1.2258313
2014-03-09 13:05:57.187,7.1251445,2.336741,-1.1109096
2014-03-09 13:05:57.207,6.435614,1.340753,-1.3790601
2014-03-09 13:05:57.218,5.746084,1.340753,-1.1109096
2014-03-09 13:05:57.238,6.703765,1.9536686,-0.30645782
2014-03-09 13:05:57.258,8.772355,1.7621324,0.45968673
2014-03-09 13:05:57.267,10.649409,1.0342951,0.30645782
2014-03-09 13:05:57.287,8.887277,-0.15322891,-0.15322891
2014-03-09 13:05:57.298,6.3206925,0.61291564,-1.0726024
2014-03-09 13:05:57.318,7.431602,1.4173675,-0.91937345
2014-03-09 13:05:57.327,8.0445175,0.6895301,-1.0726024
2014-03-09 13:05:57.351,7.5465236,1.6089035,-1.8770541
2014-03-09 13:05:57.368,7.5848308,2.2984335,-3.715801
2014-03-09 13:05:57.391,7.6231384,3.1794999,-4.213795
2014-03-09 13:05:57.409,8.00621,4.55856,-4.8267107
2014-03-09 13:05:57.420,8.00621,5.3247046,-4.405331
2014-03-09 13:05:57.430,9.998186,5.631162,-3.1794999
2014-03-09 13:05:57.440,12.143391,4.9799395,-3.064578
2014-03-09 13:05:57.459,13.713987,4.55856,-3.2944214
2014-03-09 13:05:57.479,14.5567465,4.6351743,-2.1068976
2014-03-09 13:05:57.489,14.863204,5.2480903,-1.340753
2014-03-09 13:05:57.508,14.441825,4.7884035,-1.6089035
2014-03-09 13:05:57.519,16.778566,3.1028855,-0.7661445
2014-03-09 13:05:57.539,18.310854,3.217807,0.45968673
2014-03-09 13:05:57.559,14.365211,0.6895301,-3.1411927
2014-03-09 13:05:57.569,14.211981,-0.4213795,-0.91937345
2014-03-09 13:05:57.588,14.671668,-0.49799395,-3.9456444
2014-03-09 13:05:57.599,13.024457,-3.0262709,-4.405331
2014-03-09 13:05:57.619,12.756307,-1.6472107,0.076614454
2014-03-09 13:05:57.639,16.4338,-3.6008794,3.371036
2014-03-09 13:05:57.652,16.625336,-9.193734,5.93762
2014-03-09 13:05:57.668,11.60709,-10.266336,11.951855
2014-03-09 13:05:57.679,6.9719152,-10.649409,11.453861
2014-03-09 13:05:57.700,5.899313,-10.036493,8.734048
2014-03-09 13:05:57.719,6.6271505,-7.0485296,5.4779334
2014-03-09 13:05:57.729,6.3589997,-4.7500963,1.6472107
2014-03-09 13:05:57.749,5.171476,-3.7924154,0.6895301
2014-03-09 13:05:57.759,5.4779334,-4.2904096,-0.7661445
2014-03-09 13:05:57.779,7.8912888,-5.631162,-2.9496565
2014-03-09 13:05:57.795,10.840945,-6.933608,-2.528277
2014-03-09 13:05:57.810,9.576807,-6.7803793,1.8387469
2014-03-09 13:05:57.828,5.401319,-5.707777,3.9073372
2014-03-09 13:05:57.839,4.405331,-6.244078,0.80445176
2014-03-09 13:05:57.859,4.903325,-7.1634517,-1.8387469
2014-03-09 13:05:57.870,4.903325,-6.2823853,1.1492168
2014-03-09 13:05:57.889,5.209783,-5.8226986,0.0
2014-03-09 13:05:57.913,5.094861,-4.596867,-1.6472107
2014-03-09 13:05:57.918,2.336741,-1.6089035,-2.336741
2014-03-09 13:05:57.938,0.80445176,0.15322891,-3.0262709
2014-03-09 13:05:57.949,1.4173675,0.6512229,-4.7500963
2014-03-09 13:05:57.968,3.1794999,0.45968673,-5.401319
2014-03-09 13:05:57.977,4.5202527,-0.842759,-4.7884035
2014-03-09 13:05:57.998,3.9456444,-2.7964275,-3.7541082
2014-03-09 13:05:58.018,4.865018,-3.4476504,-4.367024
2014-03-09 13:05:58.027,6.0142345,-0.842759,-6.0525417
2014-03-09 13:05:58.049,5.93762,0.91937345,-5.5162406
2014-03-09 13:05:58.058,6.244078,0.038307227,-6.6271505
2014-03-09 13:05:58.078,6.3589997,-2.0685902,-6.435614
2014-03-09 13:05:58.103,6.895301,-5.133168,-6.0142345
2014-03-09 13:05:58.107,7.6231384,-6.5505357,-6.895301
2014-03-09 13:05:58.127,7.201759,-6.5122285,-6.090849
2014-03-09 13:05:58.138,6.244078,-6.167464,-3.1794999
2014-03-09 13:05:58.159,5.171476,-5.592855,-1.6089035
2014-03-09 13:05:58.179,4.5202527,-5.592855,-2.681506
2014-03-09 13:05:58.190,5.631162,-6.0525417,-4.6351743
2014-03-09 13:05:58.208,7.699753,-6.7803793,-5.094861
2014-03-09 13:05:58.219,8.542512,-5.899313,-3.7924154
2014-03-09 13:05:58.239,7.431602,-2.336741,-1.685518
2014-03-09 13:05:58.250,6.0142345,-3.8307228,1.2641385
2014-03-09 13:05:58.268,6.6654577,-6.3206925,2.2218192
2014-03-09 13:05:58.288,7.5848308,-7.73806,0.8810662
2014-03-09 13:05:58.299,8.0445175,-8.925584,0.22984336
2014-03-09 13:05:58.311,8.389283,-9.5385,-0.842759
2014-03-09 13:05:58.327,9.040505,-8.848969,-1.6472107
2014-03-09 13:05:58.348,8.772355,-7.3549876,-1.4939818
2014-03-09 13:05:58.367,7.8146744,-5.094861,-1.0726024
2014-03-09 13:05:58.378,5.171476,-4.8267107,-0.6512229
2014-03-09 13:05:58.401,2.566584,-4.865018,-0.11492168
2014-03-09 13:05:58.407,1.9153614,-5.66947,-0.91937345
2014-03-09 13:05:58.428,3.4859576,-6.588843,-3.0262709
2014-03-09 13:05:58.438,5.746084,-5.209783,-5.171476
2014-03-09 13:05:58.465,6.3206925,-3.6008794,-7.5465236
2014-03-09 13:05:58.479,6.3589997,-1.9536686,-10.036493
2014-03-09 13:05:58.495,6.588843,-0.22984336,-10.649409
2014-03-09 13:05:58.509,8.274361,1.8387469,-10.534488
2014-03-09 13:05:58.519,8.925584,3.1411927,-8.0445175
2014-03-09 13:05:58.539,13.560759,2.336741,-7.8529816
2014-03-09 13:05:58.559,17.314867,-2.719813,-2.6048915
2014-03-09 13:05:58.569,7.393295,-8.350976,13.752295
2014-03-09 13:05:58.588,19.460072,-17.697939,19.115307
2014-03-09 13:05:58.599,18.65562,-19.306843,6.0142345
2014-03-09 13:05:58.619,7.1634517,-16.931795,1.1109096
2014-03-09 13:05:58.639,1.1875241,-16.127342,5.9759274
2014-03-09 13:05:58.650,1.0726024,-5.9759274,5.0182467
2014-03-09 13:05:58.669,5.171476,0.45968673,-0.91937345
2014-03-09 13:05:58.679,7.2783732,3.9073372,-2.566584
2014-03-09 13:05:58.699,2.6048915,3.6774938,0.45968673
2014-03-09 13:05:58.710,1.6089035,3.4093432,2.4899697
2014-03-09 13:05:58.728,2.0685902,3.1028855,0.61291564
2014-03-09 13:05:58.749,3.217807,3.3327289,-2.566584
2014-03-09 13:05:58.759,6.703765,4.3287168,-6.205771
2014-03-09 13:05:58.779,16.85518,4.55856,-5.707777
2014-03-09 13:05:58.790,19.6133,-1.2258313,10.611102
2014-03-09 13:05:58.808,19.574993,-3.4476504,7.8912888
2014-03-09 13:05:58.829,18.885464,1.0726024,5.861006
2014-03-09 13:05:58.839,14.978126,-0.038307227,5.2863975
2014-03-09 13:05:58.859,13.062764,-1.532289,5.2480903
2014-03-09 13:05:58.869,12.603078,-3.064578,2.566584
2014-03-09 13:05:58.888,12.258312,-2.681506,-1.7621324
2014-03-09 13:05:58.899,8.197746,-1.0726024,-3.9073372
2014-03-09 13:05:58.919,2.681506,0.8810662,-2.873042
2014-03-09 13:05:58.939,-0.2681506,2.1068976,-1.8387469
2014-03-09 13:05:58.952,-2.4899697,3.5242648,-1.6472107
2014-03-09 13:05:58.970,-2.9879637,4.405331,-1.685518
2014-03-09 13:05:58.979,0.0,1.8770541,-2.2601264
2014-03-09 13:05:59.001,3.5242648,-4.55856,-1.8387469
2014-03-09 13:05:59.019,5.171476,-8.00621,0.8810662
2014-03-09 13:05:59.032,6.4739213,-2.719813,-1.9153614
2014-03-09 13:05:59.052,5.861006,0.6895301,-3.4093432
2014-03-09 13:05:59.060,4.9799395,2.834735,-2.7581203
2014-03-09 13:05:59.077,4.55856,3.1028855,-4.1371803
2014-03-09 13:05:59.098,6.167464,-0.6895301,-7.2783732
2014-03-09 13:05:59.107,11.645397,-6.4739213,-8.542512
2014-03-09 13:05:59.127,10.113108,-10.228029,-4.55856
2014-03-09 13:05:59.138,6.435614,-6.435614,-6.5122285
2014-03-09 13:05:59.162,6.6654577,-2.030283,-7.469909
2014-03-09 13:05:59.172,10.91756,1.0342951,-9.423578
2014-03-09 13:05:59.194,8.504205,2.528277,-6.742072
2014-03-09 13:05:59.211,5.746084,2.681506,-8.312668
2014-03-09 13:05:59.219,4.7500963,2.7581203,-8.810662
2014-03-09 13:05:59.238,6.205771,2.3750482,-11.530476
2014-03-09 13:05:59.248,5.554548,-0.7661445,-9.844957
2014-03-09 13:05:59.267,6.588843,-2.1068976,-11.415554
2014-03-09 13:05:59.287,7.5848308,-1.532289,-11.798626
2014-03-09 13:05:59.298,9.11712,-0.9576807,-11.60709
2014-03-09 13:05:59.318,9.844957,-1.340753,-10.91756
2014-03-09 13:05:59.327,8.695741,-2.873042,-8.887277
2014-03-09 13:05:59.351,10.534488,-4.405331,-5.554548
2014-03-09 13:05:59.359,12.449849,-4.2904096,-5.554548
2014-03-09 13:05:59.379,12.258312,-4.2904096,-6.703765
2014-03-09 13:05:59.399,11.300632,-2.566584,-6.5122285
2014-03-09 13:05:59.417,11.18571,-0.11492168,-7.0102224
2014-03-09 13:05:59.427,9.844957,-0.15322891,-6.4739213
2014-03-09 13:05:59.437,8.619126,-1.1109096,-5.66947
2014-03-09 13:05:59.458,8.504205,-1.0726024,-5.93762
2014-03-09 13:05:59.478,7.3166804,-2.0685902,-4.903325
2014-03-09 13:05:59.487,6.167464,-1.340753,-4.7500963
2014-03-09 13:05:59.507,5.171476,-0.91937345,-4.060566
2014-03-09 13:05:59.518,3.8307228,-0.076614454,-3.8307228
2014-03-09 13:05:59.538,2.566584,0.4213795,-2.9113493
2014-03-09 13:05:59.548,1.1875241,1.6089035,-2.4899697
2014-03-09 13:05:59.568,0.11492168,2.2218192,-2.7581203
2014-03-09 13:05:59.588,-0.22984336,1.9919758,-2.9879637
2014-03-09 13:05:59.600,0.076614454,1.4939818,-3.217807
2014-03-09 13:05:59.619,1.3790601,1.685518,-4.098873
2014-03-09 13:05:59.628,4.175488,-0.076614454,-2.834735
2014-03-09 13:05:59.649,7.086837,-3.2561142,-0.49799395
2014-03-09 13:05:59.668,9.653421,-4.7500963,-0.5363012
2014-03-09 13:05:59.679,12.717999,-5.3247046,-3.2944214
2014-03-09 13:05:59.700,14.595054,-4.711789,-3.0262709
2014-03-09 13:05:59.712,12.5264635,-1.2258313,-2.719813
2014-03-09 13:05:59.728,7.967903,0.91937345,-2.4133554
2014-03-09 13:05:59.740,5.094861,1.9536686,-1.7238252
2014-03-09 13:05:59.759,4.0222588,2.7581203,-1.8387469
2014-03-09 13:05:59.779,3.1028855,2.834735,-0.7278373
2014-03-09 13:05:59.788,3.064578,2.1452048,-1.532289
2014-03-09 13:05:59.808,4.367024,0.22984336,-3.8307228
2014-03-09 13:05:59.819,5.3247046,-0.076614454,-4.3287168
2014-03-09 13:05:59.840,6.129156,0.842759,-4.711789
2014-03-09 13:05:59.859,6.5505357,-0.038307227,-5.363012
2014-03-09 13:05:59.868,8.312668,-0.34476504,-8.274361
2014-03-09 13:05:59.888,10.764331,-1.1492168,-8.772355
2014-03-09 13:05:59.900,12.909535,-3.3327289,-5.861006
2014-03-09 13:05:59.920,17.123331,-5.7843914,-3.86903
2014-03-09 13:05:59.939,17.889475,-9.11712,-2.873042
2014-03-09 13:05:59.949,14.403518,-7.5848308,-2.681506
2014-03-09 13:05:59.968,11.568783,-3.9456444,-4.865018
2014-03-09 13:05:59.979,15.897499,0.45968673,-8.734048
2014-03-09 13:06:00.003,19.191921,3.4476504,-11.683704
2014-03-09 13:06:00.061,18.80885,5.5162406,-9.691729
2014-03-09 13:06:00.075,10.419566,2.834735,-7.776367
2014-03-09 13:06:00.084,9.346964,2.6431987,-5.3247046
2014-03-09 13:06:00.086,9.921572,-1.8004397,-2.9113493
2014-03-09 13:06:00.104,14.250289,-8.734048,0.49799395
2014-03-09 13:06:00.118,19.077,-14.480132,1.2641385
2014-03-09 13:06:00.124,19.6133,-11.377247,-5.2480903
2014-03-09 13:06:00.129,19.6133,-4.4819455,-6.6654577
2014-03-09 13:06:00.138,19.6133,-0.6512229,-9.921572
2014-03-09 13:06:00.166,19.536686,-1.532289,-5.3247046
2014-03-09 13:06:00.167,4.213795,-2.834735,1.9919758
2014-03-09 13:06:00.187,-16.472107,0.6895301,4.098873
2014-03-09 13:06:00.198,-16.587029,15.820885,-5.3247046
2014-03-09 13:06:00.217,-12.028469,15.552734,-5.5162406
2014-03-09 13:06:00.237,-2.1452048,-5.5162406,-3.6391866
2014-03-09 13:06:00.247,0.91937345,0.91937345,-4.060566
2014-03-09 13:06:00.267,-0.7661445,2.681506,-4.1371803
2014-03-09 13:06:00.277,-5.056554,4.6351743,-2.4133554
2014-03-09 13:06:00.297,-3.9456444,4.6351743,-3.064578
2014-03-09 13:06:00.317,-1.8004397,2.4133554,-3.6008794
2014-03-09 13:06:00.327,-1.2641385,1.2258313,-3.6008794
2014-03-09 13:06:00.349,-0.5363012,0.9959879,-3.4859576
2014-03-09 13:06:00.382,4.711789,3.1794999,-8.0445175
2014-03-09 13:06:00.384,19.191921,2.873042,-18.464083
2014-03-09 13:06:00.411,19.6133,-19.306843,-1.4939818
2014-03-09 13:06:00.412,19.574993,-19.306843,-3.8307228
2014-03-09 13:06:00.427,19.6133,-12.411542,1.532289
2014-03-09 13:06:00.438,19.460072,-5.3247046,-15.284584
2014-03-09 13:06:00.459,10.611102,2.1068976,-16.16565
2014-03-09 13:06:00.468,2.3750482,7.0485296,-4.55856
2014-03-09 13:06:00.488,-2.1068976,9.193734,-9.998186
2014-03-09 13:06:00.508,-2.6048915,9.730036,-12.564771
2014-03-09 13:06:00.518,-0.11492168,11.492168,-15.322891
2014-03-09 13:06:00.540,3.5242648,11.951855,-13.215993
2014-03-09 13:06:00.548,4.596867,9.346964,-5.439626
2014-03-09 13:06:00.568,6.0142345,6.6271505,-1.7238252
2014-03-09 13:06:00.587,6.3589997,3.1411927,0.49799395
2014-03-09 13:06:00.599,6.3206925,0.5363012,1.7621324
2014-03-09 13:06:00.618,5.8226986,-0.45968673,2.2601264
2014-03-09 13:06:00.627,5.631162,0.22984336,2.336741
2014-03-09 13:06:00.648,5.056554,-0.7278373,3.9456444
2014-03-09 13:06:00.660,3.7541082,-3.064578,6.703765
2014-03-09 13:06:00.678,1.8770541,-3.5242648,10.113108
2014-03-09 13:06:00.701,-1.0726024,-4.55856,11.951855
2014-03-09 13:06:00.708,-5.0182467,-7.3549876,12.29662
2014-03-09 13:06:00.728,-5.209783,-9.308656,9.576807
2014-03-09 13:06:00.739,-2.4899697,-7.5848308,-1.1492168
2014-03-09 13:06:00.759,0.7278373,-4.1371803,-9.615114
2014-03-09 13:06:00.779,1.340753,-0.9576807,-7.1634517
2014-03-09 13:06:00.789,-0.076614454,1.1492168,-4.865018
2014-03-09 13:06:00.808,0.30645782,-1.2641385,-5.554548
2014-03-09 13:06:00.819,-1.3790601,-3.064578,-5.5162406
2014-03-09 13:06:00.841,-13.292608,1.4556746,-2.566584
2014-03-09 13:06:00.859,-4.2521024,6.3206925,-5.8226986
2014-03-09 13:06:00.873,7.5848308,4.55856,-4.2904096
2014-03-09 13:06:00.889,6.8569937,1.8004397,-3.5242648
2014-03-09 13:06:00.900,-2.7964275,1.4173675,0.11492168
2014-03-09 13:06:00.918,-6.703765,1.7238252,4.1371803
2014-03-09 13:06:00.932,-2.4133554,0.15322891,3.7541082
2014-03-09 13:06:00.949,-0.30645782,-0.5746084,2.183512
2014-03-09 13:06:00.968,-0.842759,-1.8387469,1.9153614
2014-03-09 13:06:00.978,-2.030283,-1.7621324,2.1068976
2014-03-09 13:06:00.999,-1.8770541,-1.6472107,1.8770541
2014-03-09 13:06:01.008,0.0,-1.8004397,0.6895301
2014-03-09 13:06:01.029,1.8004397,-2.681506,-0.076614454
2014-03-09 13:06:01.049,2.4516625,-3.371036,-0.8810662
2014-03-09 13:06:01.058,1.8770541,-3.7541082,-1.3790601
2014-03-09 13:06:01.078,1.0342951,-3.2561142,-1.685518
2014-03-09 13:06:01.088,0.80445176,-2.0685902,-1.4939818
2014-03-09 13:06:01.108,0.61291564,-0.91937345,-0.91937345
2014-03-09 13:06:01.128,0.61291564,-0.2681506,-0.2681506
2014-03-09 13:06:01.138,0.2681506,-0.15322891,-1.1492168
2014-03-09 13:06:01.158,0.91937345,0.61291564,-3.064578
2014-03-09 13:06:01.168,2.030283,0.5746084,-1.8770541
2014-03-09 13:06:01.188,2.6431987,-0.2681506,-0.7278373
2014-03-09 13:06:01.212,2.9879637,-0.842759,-1.7621324
2014-03-09 13:06:01.223,3.9839516,-0.91937345,-0.6512229
2014-03-09 13:06:01.239,4.4819455,-0.38307226,0.34476504
2014-03-09 13:06:01.250,5.094861,-0.34476504,3.715801
2014-03-09 13:06:01.268,5.094861,1.9153614,10.879252
2014-03-09 13:06:01.279,17.927782,13.024457,-7.73806
2014-03-09 13:06:01.300,19.6133,-19.038692,8.887277
2014-03-09 13:06:01.319,19.574993,-16.893488,9.270349
2014-03-09 13:06:01.329,13.637373,7.6231384,16.931795
2014-03-09 13:06:01.349,17.27656,19.88145,9.959879
2014-03-09 13:06:01.359,0.6512229,0.49799395,-6.0525417
2014-03-09 13:06:01.379,7.776367,-0.9576807,-8.734048
2014-03-09 13:06:01.389,6.588843,-9.844957,-7.240066
2014-03-09 13:06:01.408,9.308656,-4.9416323,7.8912888
2014-03-09 13:06:01.430,16.472107,0.34476504,6.5122285
2014-03-09 13:06:01.444,15.093047,1.9153614,0.6895301
2014-03-09 13:06:01.458,14.097059,2.834735,-1.3024458
2014-03-09 13:06:01.470,14.901511,2.183512,0.6512229
2014-03-09 13:06:01.490,13.40753,0.49799395,0.45968673
2014-03-09 13:06:01.511,8.887277,-0.34476504,-0.2681506
2014-03-09 13:06:01.520,5.8226986,-1.2258313,-2.0685902
2014-03-09 13:06:01.538,4.5202527,0.22984336,-2.6431987
2014-03-09 13:06:01.551,2.7581203,2.4899697,-2.6048915
2014-03-09 13:06:01.571,3.9839516,4.4436383,-1.7621324
2014-03-09 13:06:01.580,5.746084,1.0342951,-1.8387469
2014-03-09 13:06:01.599,6.090849,-0.11492168,-0.6512229
2014-03-09 13:06:01.611,7.776367,0.49799395,0.19153613
2014-03-09 13:06:01.628,8.925584,-0.49799395,0.076614454
2014-03-09 13:06:01.648,7.1251445,-1.7621324,1.1492168
2014-03-09 13:06:01.657,5.4779334,-1.4556746,0.5363012
2014-03-09 13:06:01.677,7.5848308,-0.34476504,-0.076614454
2014-03-09 13:06:01.697,12.411542,-0.7661445,-2.1452048
2014-03-09 13:06:01.709,14.978126,-2.1452048,-2.566584
2014-03-09 13:06:01.728,13.560759,-2.528277,-1.3790601
2014-03-09 13:06:01.737,8.772355,-4.1371803,-2.030283
2014-03-09 13:06:01.762,5.5162406,-3.5242648,-1.9919758
2014-03-09 13:06:01.785,3.6391866,-2.4899697,-1.532289
2014-03-09 13:06:01.790,2.6431987,-1.8770541,-0.9959879
2014-03-09 13:06:01.810,4.4436383,-1.9536686,-1.1109096
2014-03-09 13:06:01.817,11.453861,-3.0262709,-2.9496565
2014-03-09 13:06:01.837,17.659632,-5.0182467,-4.2904096
2014-03-09 13:06:01.848,14.441825,-5.363012,-2.6048915
2014-03-09 13:06:01.868,8.274361,-3.9073372,-0.49799395
2014-03-09 13:06:01.888,4.596867,-2.566584,0.22984336
2014-03-09 13:06:01.898,3.1028855,-2.2218192,-0.61291564
2014-03-09 13:06:01.918,4.1371803,-2.6431987,-3.8307228
2014-03-09 13:06:01.928,5.8226986,-2.528277,-5.631162
2014-03-09 13:06:01.948,5.8226986,-0.6512229,-5.9759274
2014-03-09 13:06:01.968,5.66947,0.7278373,-5.746084
2014-03-09 13:06:01.977,7.469909,0.7661445,-5.861006
2014-03-09 13:06:01.998,9.768343,-0.34476504,-4.903325
2014-03-09 13:06:02.009,10.113108,-1.532289,-3.9839516
2014-03-09 13:06:02.028,8.810662,-2.9879637,-3.1794999
2014-03-09 13:06:02.048,7.73806,-4.175488,-3.8307228
2014-03-09 13:06:02.057,7.776367,-4.5202527,-5.3247046
2014-03-09 13:06:02.077,8.00621,-4.55856,-5.707777
2014-03-09 13:06:02.088,8.695741,-4.2904096,-5.8226986
2014-03-09 13:06:02.112,12.373235,-3.2561142,-6.2823853
2014-03-09 13:06:02.123,17.774553,-4.367024,-7.3549876
2014-03-09 13:06:02.139,19.6133,-6.129156,-6.8186865
2014-03-09 13:06:02.158,17.927782,-7.6614456,-5.2863975
2014-03-09 13:06:02.169,6.5122285,-4.060566,0.8810662
2014-03-09 13:06:02.189,-1.340753,0.2681506,0.7278373
2014-03-09 13:06:02.200,-2.4516625,2.4133554,0.19153613
2014-03-09 13:06:02.218,-1.3024458,4.1371803,0.15322891
2014-03-09 13:06:02.238,-0.842759,4.175488,-0.7278373
2014-03-09 13:06:02.249,-1.0342951,2.336741,-1.3024458
2014-03-09 13:06:02.269,-0.076614454,-1.4173675,-7.8146744
2014-03-09 13:06:02.279,2.7581203,-3.4093432,-11.18571
2014-03-09 13:06:02.298,6.895301,-4.6351743,-10.764331
2014-03-09 13:06:02.309,14.441825,-4.55856,-18.732235
2014-03-09 13:06:02.329,19.6133,-5.707777,-19.574993
2014-03-09 13:06:02.349,14.5567465,-7.1251445,-15.322891
2014-03-09 13:06:02.360,-1.2641385,-0.22984336,-3.5242648
2014-03-09 13:06:02.378,-2.834735,-1.2258313,-8.121132
2014-03-09 13:06:02.389,-1.340753,-2.0685902,-3.3327289
2014-03-09 13:06:02.411,0.076614454,-1.9919758,2.0685902
2014-03-09 13:06:02.429,0.842759,-1.0342951,-1.9153614
2014-03-09 13:06:02.440,1.3790601,-1.3790601,-7.1634517
2014-03-09 13:06:02.458,2.873042,-0.91937345,-4.4436383
2014-03-09 13:06:02.469,3.715801,-0.38307226,-4.865018
2014-03-09 13:06:02.489,5.056554,0.2681506,-5.554548
2014-03-09 13:06:02.500,6.703765,1.4173675,-6.4739213
2014-03-09 13:06:02.518,9.11712,2.9496565,-10.572795
2014-03-09 13:06:02.538,14.978126,5.401319,-18.962078
2014-03-09 13:06:02.549,19.6133,4.2904096,-19.574993
2014-03-09 13:06:02.569,18.732235,-2.834735,-13.484144
2014-03-09 13:06:02.582,6.895301,-8.121132,-8.312668
2014-03-09 13:06:02.598,1.5705963,-7.2783732,-5.094861
2014-03-09 13:06:02.617,2.719813,-6.588843,-9.998186
2014-03-09 13:06:02.629,4.367024,-5.746084,-10.189722
2014-03-09 13:06:02.649,7.431602,-5.0182467,-12.181698
2014-03-09 13:06:02.660,16.318878,-3.4093432,-19.306843
2014-03-09 13:06:02.678,19.000385,-2.873042,-12.98615
2014-03-09 13:06:02.698,9.193734,-2.1452048,-9.461885
2014-03-09 13:06:02.709,-1.3024458,-1.0342951,-8.504205
2014-03-09 13:06:02.728,-2.873042,0.842759,-12.98615
2014-03-09 13:06:02.737,3.1411927,0.9959879,-13.177686
2014-03-09 13:06:02.757,5.401319,-0.22984336,-9.346964
2014-03-09 13:06:02.768,5.439626,1.4939818,-8.734048
2014-03-09 13:06:02.788,4.213795,2.528277,-7.469909
2014-03-09 13:06:02.808,1.7238252,2.4516625,-6.703765
2014-03-09 13:06:02.817,1.6089035,3.1794999,-8.42759
2014-03-09 13:06:02.837,2.719813,3.6774938,-8.082825
2014-03-09 13:06:02.848,2.7964275,2.183512,-5.363012
2014-03-09 13:06:02.868,2.834735,1.0726024,-2.9113493
2014-03-09 13:06:02.888,3.6774938,1.6089035,-4.55856
2014-03-09 13:06:02.897,8.810662,4.175488,-7.431602
2014-03-09 13:06:02.917,14.633361,-0.076614454,3.9456444
2014-03-09 13:06:02.928,16.548721,-6.2823853,0.6895301
2014-03-09 13:06:02.949,17.199945,-7.431602,0.2681506
2014-03-09 13:06:02.957,13.599066,-7.2783732,0.45968673
2014-03-09 13:06:02.977,9.921572,-5.66947,-0.6512229
2014-03-09 13:06:02.998,9.193734,-1.3790601,-2.3750482
2014-03-09 13:06:03.011,8.465898,1.1109096,-4.596867
2014-03-09 13:06:03.029,7.3166804,2.4516625,-6.5505357
2014-03-09 13:06:03.052,6.167464,3.2561142,-6.0525417
2014-03-09 13:06:03.062,5.746084,3.4093432,-5.899313
2014-03-09 13:06:03.077,6.6271505,4.213795,-7.3166804
2014-03-09 13:06:03.088,7.699753,4.098873,-4.060566
2014-03-09 13:06:03.108,7.3166804,0.91937345,-1.3024458
2014-03-09 13:06:03.117,8.619126,0.7278373,-4.0222588
2014-03-09 13:06:03.137,9.308656,0.038307227,-2.336741
2014-03-09 13:06:03.157,9.346964,-0.7278373,-3.2561142
2014-03-09 13:06:03.168,10.189722,-0.8810662,-4.405331
2014-03-09 13:06:03.188,12.105083,-1.8387469,-4.4819455
2014-03-09 13:06:03.198,13.40753,-1.532289,-3.715801
2014-03-09 13:06:03.219,12.794614,-0.6895301,-2.6048915
2014-03-09 13:06:03.229,12.220005,-1.8387469,-2.528277
2014-03-09 13:06:03.249,11.492168,-2.6048915,-3.1794999
2014-03-09 13:06:03.269,8.810662,-1.6472107,-3.715801
2014-03-09 13:06:03.279,5.66947,-0.038307227,-4.1371803
2014-03-09 13:06:03.299,4.405331,2.4133554,-5.3247046
2014-03-09 13:06:03.309,3.9456444,4.175488,-5.592855
2014-03-09 13:06:03.329,2.9879637,4.175488,-4.060566
2014-03-09 13:06:03.349,2.1452048,2.873042,-2.7964275
2014-03-09 13:06:03.359,1.0342951,2.6431987,-2.7964275
2014-03-09 13:06:03.378,0.2681506,2.681506,-1.7238252
2014-03-09 13:06:03.389,-0.7661445,2.2984335,-0.9576807
2014-03-09 13:06:03.409,-1.7238252,1.9536686,-0.49799395
2014-03-09 13:06:03.419,-2.3750482,1.7238252,-0.34476504
2014-03-09 13:06:03.438,-1.7621324,1.9153614,0.15322891
2014-03-09 13:06:03.467,-0.15322891,2.183512,0.9576807
2014-03-09 13:06:03.470,1.9536686,2.1452048,1.3790601
2014-03-09 13:06:03.489,5.363012,3.0262709,4.7884035
2014-03-09 13:06:03.500,9.615114,3.4093432,7.431602
2014-03-09 13:06:03.518,14.901511,0.45968673,8.925584
2014-03-09 13:06:03.538,19.6133,-1.4556746,10.113108
2014-03-09 13:06:03.551,19.6133,-0.076614454,6.8569937
2014-03-09 13:06:03.577,19.6133,-5.094861,10.840945
2014-03-09 13:06:03.598,13.40753,-2.7964275,5.439626
2014-03-09 13:06:03.601,5.707777,0.076614454,-1.1492168
2014-03-09 13:06:03.610,2.873042,1.532289,-2.1068976
2014-03-09 13:06:03.627,2.336741,2.3750482,-3.5625722
2014-03-09 13:06:03.648,2.681506,3.4859576,-3.4476504
2014-03-09 13:06:03.657,4.1371803,5.094861,-6.5122285
2014-03-09 13:06:03.677,7.776367,3.4093432,-7.0485296
2014-03-09 13:06:03.688,11.224017,-0.9959879,-3.5625722
2014-03-09 13:06:03.711,14.978126,-1.9153614,-0.9959879
2014-03-09 13:06:03.729,14.135366,-5.554548,0.7661445
2014-03-09 13:06:03.739,10.955867,-5.094861,1.8387469
2014-03-09 13:06:03.759,10.649409,-1.9536686,0.5363012
2014-03-09 13:06:03.769,12.181698,-1.0726024,-2.834735
2014-03-09 13:06:03.789,13.790602,3.86903,-2.183512
2014-03-09 13:06:03.809,16.089035,7.201759,-4.5202527
2014-03-09 13:06:03.818,14.097059,4.2904096,-4.4819455
2014-03-09 13:06:03.838,6.742072,-0.038307227,-2.566584
2014-03-09 13:06:03.849,4.711789,0.30645782,-1.5705963
2014-03-09 13:06:03.868,5.899313,1.6472107,-1.3024458
2014-03-09 13:06:03.877,7.73806,1.6472107,-1.9919758
2014-03-09 13:06:03.899,9.040505,1.5705963,-1.9919758
2014-03-09 13:06:03.917,10.879252,0.9959879,-0.2681506
2014-03-09 13:06:03.928,13.177686,1.0726024,-0.38307226
2014-03-09 13:06:03.948,15.47612,0.5746084,-0.6512229
2014-03-09 13:06:03.958,17.123331,-0.91937345,-0.8810662
2014-03-09 13:06:03.978,15.7825775,0.5363012,0.5746084
2014-03-09 13:06:04.003,11.722012,3.1028855,2.1068976
2014-03-09 13:06:04.010,10.726024,2.681506,-0.9576807
2014-03-09 13:06:04.029,11.415554,2.9496565,-0.7278373
2014-03-09 13:06:04.052,11.33894,1.9536686,0.842759
2014-03-09 13:06:04.061,9.500193,-0.076614454,-0.49799395
2014-03-09 13:06:04.068,9.615114,-0.7278373,-0.038307227
2014-03-09 13:06:04.087,12.871228,-1.4173675,-1.3790601
2014-03-09 13:06:04.108,13.637373,-3.8307228,0.22984336
2014-03-09 13:06:04.117,9.5385,-5.2863975,3.1794999
2014-03-09 13:06:04.137,7.240066,-3.7924154,1.8770541
2014-03-09 13:06:04.149,7.8146744,0.7661445,0.22984336
2014-03-09 13:06:04.169,9.078813,4.405331,0.30645782
2014-03-09 13:06:04.189,5.171476,3.6008794,-0.15322891
2014-03-09 13:06:04.201,2.3750482,4.0222588,-0.19153613
2014-03-09 13:06:04.218,1.8770541,4.7884035,1.532289
2014-03-09 13:06:04.229,2.6431987,4.8267107,0.45968673
2014-03-09 13:06:04.250,7.0102224,3.5242648,-1.3024458
2014-03-09 13:06:04.269,11.760319,3.5242648,-3.371036
2014-03-09 13:06:04.278,13.292608,1.4939818,-2.7964275
2014-03-09 13:06:04.298,7.086837,-3.7924154,-0.19153613
2014-03-09 13:06:04.309,-2.1452048,-3.217807,-1.3790601
2014-03-09 13:06:04.329,-1.1109096,3.1411927,-4.865018
2014-03-09 13:06:04.338,13.024457,8.504205,-8.848969
2014-03-09 13:06:04.358,17.659632,1.7238252,-3.1794999
2014-03-09 13:06:04.378,16.970102,-0.15322891,-3.8307228
2014-03-09 13:06:04.390,14.058752,2.030283,-5.861006
2014-03-09 13:06:04.409,12.564771,-2.1452048,-7.6231384
2014-03-09 13:06:04.418,14.595054,-4.4436383,-4.673482
2014-03-09 13:06:04.438,13.867216,3.371036,1.1875241
2014-03-09 13:06:04.458,3.064578,4.711789,-3.9073372
2014-03-09 13:06:04.470,9.270349,9.308656,-14.135366
2014-03-09 13:06:04.489,14.326903,5.439626,-7.1251445
2014-03-09 13:06:04.498,3.7924154,1.3024458,-2.719813
2014-03-09 13:06:04.519,9.998186,7.201759,-6.588843
2014-03-09 13:06:04.538,11.722012,4.2904096,-9.653421
2014-03-09 13:06:04.550,14.441825,1.6089035,-10.91756
2014-03-09 13:06:04.569,18.310854,6.397307,-13.101071
2014-03-09 13:06:04.578,5.2863975,1.532289,-3.6008794
2014-03-09 13:06:04.598,1.7238252,2.2984335,-3.6008794
2014-03-09 13:06:04.609,7.5465236,6.7803793,-5.707777
2014-03-09 13:06:04.629,9.998186,3.9839516,-7.8146744
2014-03-09 13:06:04.649,12.29662,2.681506,-10.266336
2014-03-09 13:06:04.658,13.752295,0.15322891,-6.895301
2014-03-09 13:06:04.678,10.304645,-0.80445176,-5.401319
2014-03-09 13:06:04.689,12.066776,3.9073372,-6.090849
2014-03-09 13:06:04.709,17.736246,3.8307228,-6.9719152
2014-03-09 13:06:04.729,19.6133,3.4476504,-6.8569937
2014-03-09 13:06:04.738,19.6133,4.098873,-6.129156
2014-03-09 13:06:04.758,19.6133,1.9536686,-7.0485296
2014-03-09 13:06:04.769,19.34515,2.2984335,-4.405331
2014-03-09 13:06:04.789,17.00841,2.2601264,-4.2521024
2014-03-09 13:06:04.799,17.697939,1.0342951,-7.776367
2014-03-09 13:06:04.817,19.6133,-0.34476504,-7.3549876
2014-03-09 13:06:04.837,19.6133,-1.4556746,-7.1251445
2014-03-09 13:06:04.848,19.6133,-2.030283,-5.0182467
2014-03-09 13:06:04.868,19.6133,0.19153613,-2.9879637
2014-03-09 13:06:04.877,19.6133,3.0262709,-1.3790601
2014-03-09 13:06:04.898,19.6133,2.4133554,-3.9073372
2014-03-09 13:06:04.917,19.6133,1.0342951,-1.2641385
2014-03-09 13:06:04.928,19.498379,2.681506,3.86903
2014-03-09 13:06:04.948,14.480132,1.7621324,5.439626
2014-03-09 13:06:04.957,9.270349,-2.336741,2.9113493
2014-03-09 13:06:04.977,5.439626,-2.528277,3.4859576
2014-03-09 13:06:04.998,0.9576807,-3.217807,3.1028855
2014-03-09 13:06:05.008,-2.183512,-5.8226986,6.703765
2014-03-09 13:06:05.027,-2.9879637,-7.5082164,14.097059
2014-03-09 13:06:05.037,-3.3327289,-9.346964,10.304645
2014-03-09 13:06:05.057,-2.566584,-10.228029,3.715801
2014-03-09 13:06:05.068,-1.685518,-8.00621,2.2984335
2014-03-09 13:06:05.088,-3.1794999,-5.7843914,2.0685902
2014-03-09 13:06:05.112,-5.439626,-2.566584,3.217807
2014-03-09 13:06:05.120,-8.695741,-3.2561142,5.554548
2014-03-09 13:06:05.139,-9.423578,-7.086837,8.6574335
2014-03-09 13:06:05.151,-11.070788,-5.2480903,15.705963
2014-03-09 13:06:05.191,-15.629349,0.22984336,14.595054
2014-03-09 13:06:05.212,-19.574993,7.8912888,3.7924154
2014-03-09 13:06:05.236,-18.50239,12.641385,-2.1452048
2014-03-09 13:06:05.276,14.441825,15.591042,-17.468096
2014-03-09 13:06:05.278,17.889475,-3.4093432,-18.847157
2014-03-09 13:06:05.281,-17.96609,2.183512,-6.0142345
2014-03-09 13:06:05.303,-2.7581203,10.381259,-4.0222588
2014-03-09 13:06:05.317,6.6271505,6.9719152,-5.439626
2014-03-09 13:06:05.321,3.9839516,-3.1411927,-3.9073372
2014-03-09 13:06:05.322,1.4173675,-1.0342951,16.16565
2014-03-09 13:06:05.335,-2.7964275,-3.064578,1.9919758
2014-03-09 13:06:05.340,6.205771,-5.401319,-3.6008794
2014-03-09 13:06:05.357,3.9839516,-6.588843,-2.566584
2014-03-09 13:06:05.377,2.2984335,-4.0222588,-4.098873
2014-03-09 13:06:05.387,1.8387469,-1.3024458,-4.175488
2014-03-09 13:06:05.408,2.4899697,-1.1492168,-1.8770541
2014-03-09 13:06:05.417,3.0262709,-2.030283,-1.1109096
2014-03-09 13:06:05.437,2.7581203,-3.064578,-0.7278373
2014-03-09 13:06:05.452,2.4133554,-3.3327289,-0.34476504
2014-03-09 13:06:05.483,2.030283,-2.1068976,0.038307227
2014-03-09 13:06:05.496,1.5705963,-0.45968673,0.34476504
2014-03-09 13:06:05.504,1.3790601,0.45968673,0.30645782
2014-03-09 13:06:05.517,1.7621324,0.49799395,0.076614454
2014-03-09 13:06:05.528,1.685518,0.6895301,0.8810662
2014-03-09 13:06:05.552,1.7621324,1.4173675,0.30645782
2014-03-09 13:06:05.568,2.528277,1.0726024,1.685518
2014-03-09 13:06:05.577,2.7964275,0.842759,3.6008794
2014-03-09 13:06:05.601,2.4516625,1.532289,3.2561142
2014-03-09 13:06:05.609,2.719813,1.7621324,2.528277
2014-03-09 13:06:05.629,2.336741,2.0685902,2.719813
2014-03-09 13:06:05.649,1.8004397,2.2984335,2.4133554
2014-03-09 13:06:05.660,1.1492168,2.183512,1.532289
2014-03-09 13:06:05.678,0.038307227,1.0726024,1.8004397
2014-03-09 13:06:05.689,-1.340753,0.038307227,2.9496565
2014-03-09 13:06:05.709,2.0685902,5.2480903,6.090849
2014-03-09 13:06:05.719,19.6133,-16.242264,-2.2984335
2014-03-09 13:06:05.738,-16.4338,-19.306843,19.6133
2014-03-09 13:06:05.761,8.695741,2.4899697,10.496181
2014-03-09 13:06:05.769,1.6472107,-6.9719152,6.3206925
2014-03-09 13:06:05.789,-19.574993,18.08101,-10.381259
2014-03-09 13:06:05.802,-6.8569937,13.982138,-19.574993
2014-03-09 13:06:05.824,2.6431987,13.254301,-7.6231384
2014-03-09 13:06:05.838,0.49799395,8.159439,-0.6895301
2014-03-09 13:06:05.850,4.213795,5.7843914,-3.4093432
2014-03-09 13:06:05.867,14.058752,10.036493,-2.4899697
2014-03-09 13:06:05.877,19.6133,14.518439,-6.8569937
2014-03-09 13:06:05.898,19.6133,17.468096,-5.707777
2014-03-09 13:06:05.917,19.421764,-2.4516625,-5.8226986
2014-03-09 13:06:05.928,14.441825,-8.389283,-1.340753
2014-03-09 13:06:05.953,17.81286,-3.715801,5.554548
2014-03-09 13:06:05.963,17.927782,5.66947,2.1068976
2014-03-09 13:06:05.979,14.288596,6.0142345,-1.3024458
2014-03-09 13:06:05.989,10.534488,6.3206925,-2.4899697
2014-03-09 13:06:06.008,9.844957,6.703765,-2.719813
2014-03-09 13:06:06.038,11.683704,4.8267107,-3.0262709
2014-03-09 13:06:06.042,10.840945,1.3024458,-4.4819455
2014-03-09 13:06:06.062,11.262324,0.0,-5.2863975
2014-03-09 13:06:06.068,12.220005,-0.61291564,-4.673482
2014-03-09 13:06:06.088,14.211981,0.8810662,-2.2984335
2014-03-09 13:06:06.107,15.974113,3.6391866,-0.49799395
2014-03-09 13:06:06.117,17.54471,4.865018,-1.532289
2014-03-09 13:06:06.137,16.01242,2.4133554,-2.336741
2014-03-09 13:06:06.152,12.909535,-0.5746084,-3.7924154
2014-03-09 13:06:06.169,10.6877165,0.6512229,-2.566584
2014-03-09 13:06:06.179,11.377247,3.6008794,-2.7581203
2014-03-09 13:06:06.199,12.411542,3.217807,-3.6774938
2014-03-09 13:06:06.218,12.334928,3.6774938,-3.715801
2014-03-09 13:06:06.229,11.760319,2.9496565,-3.86903
2014-03-09 13:06:06.249,10.726024,3.1028855,-3.0262709
2014-03-09 13:06:06.260,10.457873,3.371036,-1.2641385
2014-03-09 13:06:06.278,11.990162,3.4093432,-1.8770541
2014-03-09 13:06:06.299,11.262324,2.681506,-1.0726024
2014-03-09 13:06:06.309,11.33894,5.439626,-2.2218192
2014-03-09 13:06:06.329,13.215993,6.703765,-2.3750482
2014-03-09 13:06:06.340,13.330915,6.129156,-0.91937345
2014-03-09 13:06:06.358,13.560759,5.554548,0.61291564
2014-03-09 13:06:06.369,12.143391,4.9799395,0.45968673
2014-03-09 13:06:06.389,11.032481,5.592855,-0.4213795
2014-03-09 13:06:06.409,11.18571,6.205771,1.3790601
2014-03-09 13:06:06.420,11.492168,5.861006,3.5242648
2014-03-09 13:06:06.438,11.722012,5.2863975,3.217807
2014-03-09 13:06:06.449,12.717999,4.903325,3.371036
2014-03-09 13:06:06.469,14.211981,4.4436383,3.3327289
2014-03-09 13:06:06.489,14.250289,3.5625722,3.6774938
2014-03-09 13:06:06.500,11.070788,2.7964275,4.060566
2014-03-09 13:06:06.521,8.6574335,3.1794999,4.4436383
2014-03-09 13:06:06.529,7.776367,3.4093432,4.2521024
2014-03-09 13:06:06.549,7.469909,4.1371803,3.2561142
2014-03-09 13:06:06.569,8.504205,5.363012,3.2561142
2014-03-09 13:06:06.579,10.91756,6.3206925,3.5625722
2014-03-09 13:06:06.598,13.713987,6.588843,3.371036
2014-03-09 13:06:06.609,13.254301,5.5162406,3.1411927
2014-03-09 13:06:06.629,9.500193,4.4819455,3.064578
2014-03-09 13:06:06.639,7.240066,3.5625722,4.060566
2014-03-09 13:06:06.659,7.2783732,3.9073372,4.213795
2014-03-09 13:06:06.706,8.197746,4.8267107,4.673482
2014-03-09 13:06:06.718,9.232041,4.711789,5.094861
2014-03-09 13:06:06.729,9.385271,2.9496565,5.554548
2014-03-09 13:06:06.739,8.542512,1.6472107,4.0222588
2014-03-09 13:06:06.750,7.393295,1.2258313,3.1411927
2014-03-09 13:06:06.751,7.1634517,1.9536686,3.3327289
2014-03-09 13:06:06.768,8.504205,2.7581203,5.094861
2014-03-09 13:06:06.788,10.649409,2.0685902,6.703765
2014-03-09 13:06:06.798,11.836933,1.0726024,6.8186865
2014-03-09 13:06:06.817,11.683704,0.15322891,6.2823853
2014-03-09 13:06:06.828,9.768343,0.30645782,7.3549876
2014-03-09 13:06:06.849,6.895301,1.6472107,6.435614
2014-03-09 13:06:06.868,6.4739213,3.4476504,4.673482
2014-03-09 13:06:06.877,6.244078,1.9919758,3.6008794
2014-03-09 13:06:06.898,5.707777,-0.38307226,2.9879637
2014-03-09 13:06:06.908,6.5505357,1.0726024,0.7661445
2014-03-09 13:06:06.928,7.086837,0.842759,1.3024458
2014-03-09 13:06:06.948,7.1634517,2.0685902,0.9959879
2014-03-09 13:06:06.957,7.1634517,3.7541082,1.6089035
2014-03-09 13:06:06.977,6.435614,4.060566,0.6512229
2014-03-09 13:06:06.987,5.439626,3.4859576,-0.49799395
2014-03-09 13:06:07.008,4.7500963,3.5242648,0.5363012
2014-03-09 13:06:07.028,4.5202527,3.5625722,2.336741
2014-03-09 13:06:07.038,5.401319,4.2521024,3.4476504
2014-03-09 13:06:07.052,7.699753,5.056554,5.899313
2014-03-09 13:06:07.069,10.266336,4.6351743,9.844957
2014-03-09 13:06:07.089,14.671668,4.405331,16.242264
2014-03-09 13:06:07.101,18.885464,3.7541082,17.851168
2014-03-09 13:06:07.127,19.6133,1.3790601,12.5264635
2014-03-09 13:06:07.138,18.119318,0.2681506,6.3589997
2014-03-09 13:06:07.149,15.322891,1.9153614,5.209783
2014-03-09 13:06:07.168,13.445837,2.3750482,4.711789
2014-03-09 13:06:07.177,11.798626,2.7964275,3.1794999
2014-03-09 13:06:07.198,9.653421,3.064578,2.528277
2014-03-09 13:06:07.217,7.240066,2.4516625,1.3790601
2014-03-09 13:06:07.228,5.631162,1.6089035,-1.1492168
2014-03-09 13:06:07.249,5.3247046,0.9959879,-1.2641385
2014-03-09 13:06:07.258,4.367024,0.038307227,-0.22984336
2014-03-09 13:06:07.278,3.217807,-0.80445176,0.0
2014-03-09 13:06:07.291,2.4133554,-0.8810662,1.5705963
2014-03-09 13:06:07.309,3.2944214,-0.34476504,3.4093432
2014-03-09 13:06:07.329,6.2823853,-0.30645782,5.363012
2014-03-09 13:06:07.338,9.768343,-0.19153613,7.8912888
2014-03-09 13:06:07.358,12.794614,0.7661445,7.3166804
2014-03-09 13:06:07.369,13.062764,-0.6895301,7.73806
2014-03-09 13:06:07.389,11.492168,-2.4516625,6.6271505
2014-03-09 13:06:07.409,9.844957,-2.6431987,4.7884035
2014-03-09 13:06:07.418,9.653421,-2.1068976,3.217807
2014-03-09 13:06:07.438,10.342952,-0.5746084,0.842759
2014-03-09 13:06:07.450,10.91756,0.5746084,-0.30645782
2014-03-09 13:06:07.469,11.990162,1.3790601,0.6512229
2014-03-09 13:06:07.478,12.5264635,1.340753,1.4173675
2014-03-09 13:06:07.513,11.760319,0.6512229,0.30645782
2014-03-09 13:06:07.524,10.151415,0.4213795,0.5363012
2014-03-09 13:06:07.532,8.465898,0.4213795,0.8810662
2014-03-09 13:06:07.551,7.0485296,0.30645782,1.5705963
2014-03-09 13:06:07.557,5.4779334,-0.038307227,1.9153614
2014-03-09 13:06:07.577,4.0222588,-0.2681506,2.0685902
2014-03-09 13:06:07.598,2.6048915,-0.45968673,1.7621324
2014-03-09 13:06:07.608,1.0726024,-0.34476504,1.1875241
2014-03-09 13:06:07.629,-0.038307227,0.45968673,0.8810662
2014-03-09 13:06:07.641,-0.38307226,1.4556746,0.7278373
2014-03-09 13:06:07.658,-0.11492168,2.2984335,0.7661445
2014-03-09 13:06:07.678,2.030283,1.9536686,1.8387469
2014-03-09 13:06:07.689,4.596867,1.2258313,2.9879637
2014-03-09 13:06:07.709,7.73806,1.2258313,4.3287168
2014-03-09 13:06:07.734,12.5264635,1.1109096,5.2480903
2014-03-09 13:06:07.764,17.238253,2.0685902,4.9416323
2014-03-09 13:06:07.777,19.574993,2.1068976,5.2480903
2014-03-09 13:06:07.794,19.306843,1.4173675,4.903325
2014-03-09 13:06:07.812,15.935806,0.076614454,4.4436383
2014-03-09 13:06:07.822,11.798626,-0.8810662,3.9839516
2014-03-09 13:06:07.832,8.810662,-1.0342951,2.873042
2014-03-09 13:06:07.833,6.8569937,-0.9959879,1.7238252
2014-03-09 13:06:07.849,5.899313,-0.9576807,0.7661445
2014-03-09 13:06:07.868,6.2823853,-0.842759,-1.4173675
2014-03-09 13:06:07.877,8.082825,-0.91937345,-5.0182467
2014-03-09 13:06:07.898,8.6574335,-1.1109096,-2.030283
2014-03-09 13:06:07.908,9.078813,-0.6895301,2.9113493
2014-03-09 13:06:07.928,12.29662,-0.4213795,3.9839516
2014-03-09 13:06:07.938,15.974113,-0.19153613,3.1411927
2014-03-09 13:06:07.960,18.310854,0.038307227,2.528277
2014-03-09 13:06:07.978,19.077,-2.7964275,4.2904096
2014-03-09 13:06:07.989,14.863204,-4.060566,2.528277
2014-03-09 13:06:08.010,11.760319,-3.6774938,1.3024458
2014-03-09 13:06:08.018,9.691729,-2.9496565,-0.2681506
2014-03-09 13:06:08.038,8.121132,-1.8387469,-0.8810662
2014-03-09 13:06:08.054,7.0102224,-0.5746084,-1.9153614
2014-03-09 13:06:08.068,6.435614,0.61291564,-2.7964275
2014-03-09 13:06:08.088,6.167464,0.8810662,-2.0685902
2014-03-09 13:06:08.097,5.93762,0.38307226,-0.19153613
2014-03-09 13:06:08.117,6.3206925,-0.5746084,1.1492168
2014-03-09 13:06:08.137,7.73806,-1.6472107,2.2601264
2014-03-09 13:06:08.149,9.844957,-2.2984335,3.4093432
2014-03-09 13:06:08.168,11.760319,-2.4133554,4.175488
2014-03-09 13:06:08.177,13.790602,-2.681506,3.9456444
2014-03-09 13:06:08.199,14.135366,-3.6774938,2.528277
2014-03-09 13:06:08.209,12.028469,-4.9799395,0.842759
2014-03-09 13:06:08.229,9.691729,-4.6351743,-0.45968673
2014-03-09 13:06:08.250,7.431602,-3.5242648,-0.6512229
2014-03-09 13:06:08.257,6.4739213,-0.49799395,-2.681506
2014-03-09 13:06:08.277,6.397307,1.7621324,-1.6089035
2014-03-09 13:06:08.287,6.8186865,3.715801,-1.2258313
2014-03-09 13:06:08.308,7.0102224,4.4436383,-1.532289
2014-03-09 13:06:08.327,5.592855,3.064578,-1.4939818
2014-03-09 13:06:08.337,4.060566,0.80445176,-0.22984336
2014-03-09 13:06:08.357,2.6431987,-0.5746084,0.45968673
2014-03-09 13:06:08.368,2.719813,-1.0342951,-0.34476504
2014-03-09 13:06:08.391,4.0222588,-0.842759,-0.91937345
2014-03-09 13:06:08.400,5.401319,0.19153613,-0.11492168
2014-03-09 13:06:08.418,5.707777,0.9959879,-0.5363012
2014-03-09 13:06:08.439,5.7843914,1.0342951,-0.5363012
2014-03-09 13:06:08.450,7.6614456,0.91937345,-1.1109096
2014-03-09 13:06:08.469,10.572795,0.91937345,-2.3750482
2014-03-09 13:06:08.478,12.066776,0.45968673,-2.1452048
2014-03-09 13:06:08.498,8.887277,-1.4939818,-0.19153613
2014-03-09 13:06:08.518,9.385271,-1.0342951,-1.9919758
2014-03-09 13:06:08.529,9.346964,0.7278373,-0.38307226
2014-03-09 13:06:08.550,6.244078,-1.1109096,1.8387469
2014-03-09 13:06:08.559,7.8146744,-1.9919758,0.5746084
2014-03-09 13:06:08.579,10.496181,-1.1109096,1.3024458
2014-03-09 13:06:08.591,11.760319,-0.45968673,1.0342951
2014-03-09 13:06:08.610,14.901511,-0.6512229,0.7278373
2014-03-09 13:06:08.630,14.211981,-1.1492168,2.6431987
2014-03-09 13:06:08.639,12.258312,0.038307227,2.4899697
2014-03-09 13:06:08.658,11.18571,2.4133554,2.4133554
2014-03-09 13:06:08.671,11.722012,4.4436383,0.9959879
2014-03-09 13:06:08.690,12.679692,5.3247046,-0.80445176
2014-03-09 13:06:08.712,12.947843,5.094861,-1.2258313
2014-03-09 13:06:08.720,14.020445,4.6351743,-0.7278373
2014-03-09 13:06:08.738,15.437813,3.7541082,-0.4213795
2014-03-09 13:06:08.751,16.4338,2.1452048,-0.7278373
2014-03-09 13:06:08.770,16.242264,2.1068976,0.15322891
2014-03-09 13:06:08.790,12.871228,2.6431987,0.2681506
2014-03-09 13:06:08.801,7.3549876,3.2944214,-0.61291564
2014-03-09 13:06:08.818,4.7500963,3.6008794,-0.80445176
2014-03-09 13:06:08.829,3.0262709,3.86903,-1.685518
2014-03-09 13:06:08.850,2.030283,3.9839516,-2.7581203
2014-03-09 13:06:08.860,2.9113493,5.592855,-5.363012
2014-03-09 13:06:08.878,5.899313,6.6271505,-3.3327289
2014-03-09 13:06:08.898,8.0445175,5.401319,-2.030283
2014-03-09 13:06:08.909,8.389283,4.098873,-1.3024458
2014-03-09 13:06:08.930,8.082825,3.9839516,-1.5705963
2014-03-09 13:06:08.940,8.0445175,2.4899697,0.49799395
2014-03-09 13:06:08.964,10.419566,1.6089035,0.11492168
2014-03-09 13:06:08.979,12.871228,1.8004397,1.4939818
2014-03-09 13:06:08.989,13.254301,3.1028855,2.6048915
2014-03-09 13:06:09.002,13.40753,4.367024,3.6008794
2014-03-09 13:06:09.017,14.863204,0.9959879,1.6089035
2014-03-09 13:06:09.037,15.667656,-1.4556746,3.1411927
2014-03-09 13:06:09.049,16.472107,-0.45968673,3.9073372
2014-03-09 13:06:09.068,15.361198,2.681506,3.9456444
2014-03-09 13:06:09.089,11.147403,5.094861,4.1371803
2014-03-09 13:06:09.101,6.588843,5.5162406,3.6391866
2014-03-09 13:06:09.118,3.4859576,4.9799395,1.6089035
2014-03-09 13:06:09.129,0.8810662,3.217807,0.5363012
2014-03-09 13:06:09.150,0.38307226,3.5625722,-1.685518
2014-03-09 13:06:09.169,1.2641385,4.903325,-2.4133554
2014-03-09 13:06:09.181,2.873042,5.899313,-2.834735
2014-03-09 13:06:09.201,6.090849,7.2783732,-2.9113493
2014-03-09 13:06:09.208,7.469909,5.592855,-3.5242648
2014-03-09 13:06:09.228,7.431602,2.336741,0.9576807
2014-03-09 13:06:09.248,8.542512,-0.22984336,3.6391866
2014-03-09 13:06:09.257,10.496181,-1.532289,4.673482
2014-03-09 13:06:09.278,12.105083,-1.4173675,5.592855
2014-03-09 13:06:09.288,11.683704,-0.61291564,6.933608
2014-03-09 13:06:09.308,10.802638,1.8387469,5.631162
2014-03-09 13:06:09.317,9.691729,3.371036,6.6654577
2014-03-09 13:06:09.337,8.619126,3.0262709,4.903325
2014-03-09 13:06:09.357,7.6231384,3.064578,1.8387469
2014-03-09 13:06:09.368,6.8186865,3.4859576,1.2641385
2014-03-09 13:06:09.388,8.963891,3.0262709,0.45968673
2014-03-09 13:06:09.398,12.373235,3.217807,0.9576807
2014-03-09 13:06:09.417,13.905523,2.6048915,1.1492168
2014-03-09 13:06:09.437,13.369223,0.7661445,2.6431987
2014-03-09 13:06:09.452,10.457873,-0.2681506,2.834735
2014-03-09 13:06:09.469,8.121132,0.4213795,2.4899697
2014-03-09 13:06:09.480,7.8529816,1.1875241,0.6895301
2014-03-09 13:06:09.499,9.500193,1.3790601,-0.4213795
2014-03-09 13:06:09.509,9.11712,2.2601264,0.5363012
2014-03-09 13:06:09.529,8.42759,3.7924154,0.4213795
2014-03-09 13:06:09.550,9.078813,4.2521024,0.038307227
2014-03-09 13:06:09.561,9.80665,4.213795,-0.7278373
2014-03-09 13:06:09.579,10.496181,4.367024,0.9576807
2014-03-09 13:06:09.589,12.5264635,3.2944214,-0.91937345
2014-03-09 13:06:09.609,15.935806,4.0222588,-0.6512229
2014-03-09 13:06:09.629,15.20797,4.6351743,-1.4939818
2014-03-09 13:06:09.641,11.722012,6.933608,-3.3327289
