Date,accelX-gX(m/s^2),accelY-gY(m/s^2),accelZ-gZ(m/s^2)
2014-03-09 13:07:07.889,-2.7964275,1.7238252,6.0525417
2014-03-09 13:07:07.908,-5.631162,1.9536686,1.1492168
2014-03-09 13:07:07.928,-5.899313,0.80445176,1.6472107
2014-03-09 13:07:07.951,-4.673482,-0.19153613,3.0262709
2014-03-09 13:07:07.969,-2.9879637,-0.076614454,5.746084
2014-03-09 13:07:07.989,-1.4939818,1.8770541,10.228029
2014-03-09 13:07:08.009,-2.681506,1.8770541,10.726024
2014-03-09 13:07:08.029,-2.7581203,0.11492168,13.177686
2014-03-09 13:07:08.049,-1.4939818,-1.1875241,13.867216
2014-03-09 13:07:08.069,-1.3790601,0.49799395,8.504205
2014-03-09 13:07:08.093,-1.0726024,2.1452048,9.308656
2014-03-09 13:07:08.109,-0.038307227,3.1411927,12.258312
2014-03-09 13:07:08.129,0.49799395,3.1028855,12.641385
2014-03-09 13:07:08.151,0.5746084,3.1411927,9.615114
2014-03-09 13:07:08.171,0.6895301,3.5625722,9.998186
2014-03-09 13:07:08.193,0.80445176,3.1794999,10.496181
2014-03-09 13:07:08.209,0.80445176,3.1411927,10.955867
2014-03-09 13:07:08.229,0.5363012,3.1028855,9.883265
2014-03-09 13:07:08.250,0.38307226,3.1411927,8.772355
2014-03-09 13:07:08.268,0.19153613,3.371036,8.159439
2014-03-09 13:07:08.294,0.2681506,3.2944214,9.308656
2014-03-09 13:07:08.309,0.22984336,3.2561142,9.615114
2014-03-09 13:07:08.331,0.22984336,3.217807,9.385271
2014-03-09 13:07:08.349,0.0,3.1794999,9.155427
2014-03-09 13:07:08.369,-0.19153613,3.5625722,8.848969
2014-03-09 13:07:08.389,-0.19153613,3.6008794,8.580819
2014-03-09 13:07:08.412,-0.11492168,3.715801,8.925584
2014-03-09 13:07:08.429,0.15322891,3.4859576,9.308656
2014-03-09 13:07:08.449,0.2681506,3.371036,9.653421
2014-03-09 13:07:08.469,0.30645782,3.3327289,9.500193
2014-03-09 13:07:08.497,0.15322891,3.7541082,9.193734
2014-03-09 13:07:08.512,0.19153613,4.175488,9.11712
2014-03-09 13:07:08.531,0.2681506,4.060566,9.5385
2014-03-09 13:07:08.549,0.11492168,3.6774938,9.5385
2014-03-09 13:07:08.573,0.0,3.86903,9.768343
2014-03-09 13:07:08.593,0.15322891,3.9839516,9.423578
2014-03-09 13:07:08.609,0.15322891,4.367024,9.11712
2014-03-09 13:07:08.630,0.11492168,4.2521024,9.11712
2014-03-09 13:07:08.649,0.076614454,3.86903,9.040505
2014-03-09 13:07:08.669,-0.076614454,3.7541082,8.810662
2014-03-09 13:07:08.689,0.0,4.098873,8.580819
2014-03-09 13:07:08.715,0.076614454,4.367024,8.42759
2014-03-09 13:07:08.728,0.038307227,4.4436383,8.274361
2014-03-09 13:07:08.749,0.038307227,3.7541082,8.734048
2014-03-09 13:07:08.768,0.076614454,3.7541082,9.040505
2014-03-09 13:07:08.789,0.15322891,3.5242648,9.002198
2014-03-09 13:07:08.809,-0.076614454,3.6391866,8.465898
2014-03-09 13:07:08.828,-0.076614454,4.098873,8.312668
2014-03-09 13:07:08.849,-0.076614454,4.1371803,8.580819
2014-03-09 13:07:08.869,-0.038307227,3.9839516,8.925584
2014-03-09 13:07:08.891,0.0,3.715801,9.232041
2014-03-09 13:07:08.910,0.19153613,3.6391866,9.423578
2014-03-09 13:07:08.930,0.22984336,3.6391866,9.308656
2014-03-09 13:07:08.948,0.19153613,3.8307228,9.193734
2014-03-09 13:07:08.969,0.076614454,4.0222588,9.002198
2014-03-09 13:07:08.989,-0.076614454,3.9839516,9.040505
2014-03-09 13:07:09.010,-0.11492168,3.9456444,8.848969
2014-03-09 13:07:09.029,-0.076614454,4.0222588,8.6574335
2014-03-09 13:07:09.048,-0.076614454,4.213795,8.619126
2014-03-09 13:07:09.068,0.0,4.4819455,8.734048
2014-03-09 13:07:09.089,-0.11492168,4.367024,8.580819
2014-03-09 13:07:09.108,-0.19153613,4.2521024,8.504205
2014-03-09 13:07:09.129,-0.11492168,4.2521024,8.734048
2014-03-09 13:07:09.149,-0.076614454,4.405331,9.040505
2014-03-09 13:07:09.169,0.0,4.4819455,9.155427
2014-03-09 13:07:09.191,0.0,4.405331,9.078813
2014-03-09 13:07:09.210,0.0,4.3287168,8.963891
2014-03-09 13:07:09.230,-0.076614454,4.2521024,8.734048
2014-03-09 13:07:09.251,-0.076614454,4.367024,8.504205
2014-03-09 13:07:09.270,0.0,4.55856,8.580819
2014-03-09 13:07:09.291,0.11492168,4.7500963,8.772355
2014-03-09 13:07:09.311,0.076614454,4.6351743,8.695741
2014-03-09 13:07:09.346,0.0,4.4819455,8.542512
2014-03-09 13:07:09.358,-0.038307227,4.5202527,8.389283
2014-03-09 13:07:09.370,0.076614454,4.673482,8.42759
2014-03-09 13:07:09.406,0.076614454,4.596867,8.504205
2014-03-09 13:07:09.424,0.076614454,4.55856,8.542512
2014-03-09 13:07:09.429,0.11492168,4.596867,8.772355
2014-03-09 13:07:09.449,0.038307227,4.673482,8.504205
2014-03-09 13:07:09.469,0.11492168,4.8267107,8.42759
2014-03-09 13:07:09.478,0.19153613,4.9416323,8.389283
2014-03-09 13:07:09.499,0.15322891,5.056554,8.42759
2014-03-09 13:07:09.510,0.15322891,5.0182467,8.389283
2014-03-09 13:07:09.529,0.076614454,4.903325,8.236053
2014-03-09 13:07:09.549,0.076614454,4.903325,8.197746
2014-03-09 13:07:09.559,0.15322891,4.903325,8.389283
2014-03-09 13:07:09.579,0.19153613,4.865018,8.542512
2014-03-09 13:07:09.594,0.22984336,4.9416323,8.6574335
2014-03-09 13:07:09.611,0.30645782,5.0182467,8.810662
2014-03-09 13:07:09.631,0.2681506,4.903325,8.619126
2014-03-09 13:07:09.641,0.11492168,4.7884035,8.42759
2014-03-09 13:07:09.660,0.076614454,4.673482,8.350976
2014-03-09 13:07:09.671,0.076614454,4.7884035,8.465898
2014-03-09 13:07:09.704,0.19153613,4.7500963,8.504205
2014-03-09 13:07:09.711,0.19153613,4.7500963,8.389283
2014-03-09 13:07:09.720,0.22984336,4.8267107,8.42759
2014-03-09 13:07:09.741,0.30645782,4.8267107,8.504205
2014-03-09 13:07:09.756,0.30645782,4.865018,8.542512
2014-03-09 13:07:09.801,0.2681506,4.8267107,8.580819
2014-03-09 13:07:09.807,0.22984336,4.9416323,8.504205
2014-03-09 13:07:09.820,0.30645782,5.0182467,8.542512
2014-03-09 13:07:09.828,0.34476504,4.903325,8.619126
2014-03-09 13:07:09.853,0.34476504,4.8267107,8.734048
2014-03-09 13:07:09.862,0.4213795,4.7500963,8.848969
2014-03-09 13:07:09.880,0.45968673,4.7500963,8.772355
2014-03-09 13:07:09.900,0.45968673,4.865018,8.542512
2014-03-09 13:07:09.913,0.4213795,4.9416323,8.274361
2014-03-09 13:07:09.930,0.45968673,4.9416323,8.274361
2014-03-09 13:07:09.942,0.45968673,4.9416323,8.350976
2014-03-09 13:07:09.960,0.5363012,4.9416323,8.42759
2014-03-09 13:07:09.980,0.5746084,4.9416323,8.42759
2014-03-09 13:07:09.989,0.5746084,4.865018,8.465898
2014-03-09 13:07:10.006,0.5746084,4.8267107,8.465898
2014-03-09 13:07:10.019,0.5363012,4.8267107,8.389283
2014-03-09 13:07:10.039,0.49799395,4.8267107,8.389283
2014-03-09 13:07:10.049,0.4213795,4.8267107,8.465898
2014-03-09 13:07:10.068,0.38307226,4.7884035,8.542512
2014-03-09 13:07:10.089,0.4213795,4.7500963,8.619126
2014-03-09 13:07:10.110,0.38307226,4.7884035,8.580819
2014-03-09 13:07:10.122,0.38307226,4.7884035,8.542512
2014-03-09 13:07:10.129,0.4213795,4.8267107,8.6574335
2014-03-09 13:07:10.153,0.45968673,4.7884035,8.772355
2014-03-09 13:07:10.170,0.38307226,4.865018,8.810662
2014-03-09 13:07:10.183,0.34476504,4.9416323,8.695741
2014-03-09 13:07:10.205,0.30645782,4.9416323,8.504205
2014-03-09 13:07:10.210,0.2681506,4.9799395,8.389283
2014-03-09 13:07:10.254,0.30645782,4.9416323,8.42759
2014-03-09 13:07:10.255,0.2681506,4.865018,8.542512
2014-03-09 13:07:10.259,0.22984336,4.865018,8.580819
2014-03-09 13:07:10.280,0.19153613,4.865018,8.619126
2014-03-09 13:07:10.291,0.19153613,4.903325,8.695741
2014-03-09 13:07:10.308,0.19153613,4.8267107,8.734048
2014-03-09 13:07:10.318,0.19153613,4.711789,8.695741
2014-03-09 13:07:10.339,0.22984336,4.673482,8.734048
2014-03-09 13:07:10.359,0.30645782,4.7884035,8.810662
2014-03-09 13:07:10.368,0.34476504,4.865018,8.772355
2014-03-09 13:07:10.388,0.34476504,4.9416323,8.619126
2014-03-09 13:07:10.399,0.2681506,4.903325,8.350976
2014-03-09 13:07:10.418,0.15322891,4.9416323,8.236053
2014-03-09 13:07:10.439,0.11492168,4.9416323,8.236053
2014-03-09 13:07:10.448,0.11492168,4.8267107,8.350976
2014-03-09 13:07:10.468,0.15322891,4.7500963,8.504205
2014-03-09 13:07:10.478,0.22984336,4.7884035,8.619126
2014-03-09 13:07:10.498,0.22984336,4.8267107,8.619126
2014-03-09 13:07:10.513,0.19153613,4.8267107,8.542512
2014-03-09 13:07:10.529,0.15322891,4.8267107,8.542512
2014-03-09 13:07:10.544,0.15322891,4.7884035,8.465898
2014-03-09 13:07:10.558,0.11492168,4.8267107,8.42759
2014-03-09 13:07:10.578,0.15322891,4.865018,8.389283
2014-03-09 13:07:10.594,0.22984336,4.9799395,8.465898
2014-03-09 13:07:10.609,0.2681506,4.9799395,8.542512
2014-03-09 13:07:10.629,0.30645782,4.9799395,8.6574335
2014-03-09 13:07:10.640,0.30645782,4.9416323,8.6574335
2014-03-09 13:07:10.661,0.22984336,4.865018,8.619126
2014-03-09 13:07:10.670,0.22984336,4.7884035,8.619126
2014-03-09 13:07:10.691,0.19153613,4.7884035,8.619126
2014-03-09 13:07:10.699,0.19153613,4.7884035,8.504205
2014-03-09 13:07:10.719,0.19153613,4.8267107,8.465898
2014-03-09 13:07:10.741,0.22984336,4.8267107,8.465898
2014-03-09 13:07:10.748,0.19153613,4.865018,8.42759
2014-03-09 13:07:10.768,0.19153613,4.903325,8.42759
2014-03-09 13:07:10.779,0.22984336,4.7884035,8.504205
2014-03-09 13:07:10.802,0.34476504,4.7884035,8.580819
2014-03-09 13:07:10.819,0.4213795,4.8267107,8.695741
2014-03-09 13:07:10.829,0.5363012,4.903325,8.734048
2014-03-09 13:07:10.850,0.5363012,4.865018,8.6574335
2014-03-09 13:07:10.861,0.49799395,4.8267107,8.6574335
2014-03-09 13:07:10.881,0.45968673,4.7500963,8.619126
2014-03-09 13:07:10.897,0.4213795,4.7500963,8.504205
2014-03-09 13:07:10.909,0.45968673,4.7500963,8.465898
2014-03-09 13:07:10.930,0.49799395,4.7884035,8.504205
2014-03-09 13:07:10.952,0.5363012,4.7884035,8.504205
2014-03-09 13:07:10.965,0.61291564,4.7884035,8.542512
2014-03-09 13:07:10.976,0.5746084,4.8267107,8.580819
2014-03-09 13:07:10.993,0.5746084,4.7884035,8.580819
2014-03-09 13:07:11.009,0.5746084,4.7884035,8.6574335
2014-03-09 13:07:11.019,0.5746084,4.8267107,8.695741
2014-03-09 13:07:11.044,0.5363012,4.865018,8.619126
2014-03-09 13:07:11.050,0.5363012,4.865018,8.580819
2014-03-09 13:07:11.069,0.5746084,4.903325,8.580819
2014-03-09 13:07:11.080,0.5363012,4.865018,8.619126
2014-03-09 13:07:11.099,0.5363012,4.8267107,8.619126
2014-03-09 13:07:11.119,0.49799395,4.7500963,8.734048
2014-03-09 13:07:11.129,0.5363012,4.673482,8.734048
2014-03-09 13:07:11.149,0.5363012,4.673482,8.6574335
2014-03-09 13:07:11.159,0.5363012,4.7500963,8.542512
2014-03-09 13:07:11.179,0.49799395,4.8267107,8.42759
2014-03-09 13:07:11.193,0.49799395,4.7884035,8.389283
2014-03-09 13:07:11.209,0.45968673,4.673482,8.580819
2014-03-09 13:07:11.229,0.45968673,4.6351743,8.810662
2014-03-09 13:07:11.244,0.49799395,4.5202527,8.925584
2014-03-09 13:07:11.262,0.45968673,4.596867,8.810662
2014-03-09 13:07:11.281,0.45968673,4.7500963,8.6574335
2014-03-09 13:07:11.294,0.49799395,4.903325,8.465898
2014-03-09 13:07:11.310,0.5363012,4.9416323,8.465898
2014-03-09 13:07:11.324,0.49799395,4.865018,8.542512
2014-03-09 13:07:11.347,0.49799395,4.7500963,8.6574335
2014-03-09 13:07:11.349,0.38307226,4.673482,8.695741
2014-03-09 13:07:11.369,0.38307226,4.711789,8.619126
2014-03-09 13:07:11.393,0.38307226,4.711789,8.504205
2014-03-09 13:07:11.399,0.38307226,4.7500963,8.504205
2014-03-09 13:07:11.425,0.4213795,4.7500963,8.504205
2014-03-09 13:07:11.433,0.34476504,4.596867,8.504205
2014-03-09 13:07:11.449,0.38307226,4.5202527,8.6574335
2014-03-09 13:07:11.469,0.4213795,4.596867,8.6574335
2014-03-09 13:07:11.479,0.38307226,4.673482,8.542512
2014-03-09 13:07:11.501,0.34476504,4.711789,8.465898
2014-03-09 13:07:11.508,0.34476504,4.7500963,8.465898
2014-03-09 13:07:11.529,0.38307226,4.7884035,8.42759
2014-03-09 13:07:11.548,0.45968673,4.7500963,8.465898
2014-03-09 13:07:11.559,0.5363012,4.7500963,8.580819
2014-03-09 13:07:11.573,0.5746084,4.673482,8.619126
2014-03-09 13:07:11.592,0.61291564,4.6351743,8.580819
2014-03-09 13:07:11.609,0.61291564,4.7884035,8.580819
2014-03-09 13:07:11.618,0.5363012,4.7884035,8.772355
2014-03-09 13:07:11.638,0.38307226,4.6351743,8.887277
2014-03-09 13:07:11.658,0.38307226,4.55856,9.002198
2014-03-09 13:07:11.668,0.30645782,4.6351743,8.848969
2014-03-09 13:07:11.688,0.2681506,4.673482,8.619126
2014-03-09 13:07:11.699,0.19153613,4.673482,8.580819
2014-03-09 13:07:11.720,0.19153613,4.6351743,8.580819
2014-03-09 13:07:11.748,0.22984336,4.6351743,8.6574335
2014-03-09 13:07:11.768,0.2681506,4.6351743,8.734048
2014-03-09 13:07:11.778,0.30645782,4.6351743,8.772355
2014-03-09 13:07:11.798,0.30645782,4.673482,8.734048
2014-03-09 13:07:11.828,0.34476504,4.6351743,8.848969
2014-03-09 13:07:11.848,0.34476504,4.6351743,8.963891
2014-03-09 13:07:11.858,0.2681506,4.596867,8.887277
2014-03-09 13:07:11.878,0.22984336,4.55856,8.734048
2014-03-09 13:07:11.890,0.19153613,4.673482,8.6574335
2014-03-09 13:07:11.908,0.22984336,4.6351743,8.542512
2014-03-09 13:07:11.934,0.22984336,4.673482,8.542512
2014-03-09 13:07:11.942,0.30645782,4.673482,8.580819
2014-03-09 13:07:11.959,0.4213795,4.711789,8.6574335
2014-03-09 13:07:11.969,0.4213795,4.711789,8.734048
2014-03-09 13:07:11.992,0.45968673,4.711789,8.695741
2014-03-09 13:07:12.000,0.49799395,4.6351743,8.695741
2014-03-09 13:07:12.020,0.45968673,4.673482,8.6574335
2014-03-09 13:07:12.046,0.45968673,4.711789,8.542512
2014-03-09 13:07:12.049,0.49799395,4.7500963,8.42759
2014-03-09 13:07:12.069,0.5746084,4.8267107,8.42759
2014-03-09 13:07:12.080,0.6512229,5.171476,8.121132
2014-03-09 13:07:12.105,0.7278373,5.094861,7.73806
2014-03-09 13:07:12.121,0.5746084,4.2904096,8.350976
2014-03-09 13:07:12.130,0.4213795,3.9839516,9.040505
2014-03-09 13:07:12.146,0.9959879,3.7924154,8.848969
2014-03-09 13:07:12.159,1.532289,3.9839516,8.42759
2014-03-09 13:07:12.179,1.1875241,4.2904096,7.929596
2014-03-09 13:07:12.199,1.685518,4.213795,7.5848308
2014-03-09 13:07:12.208,2.566584,3.9839516,7.3549876
2014-03-09 13:07:12.228,2.6431987,3.6774938,7.6231384
2014-03-09 13:07:12.245,2.2218192,3.064578,8.580819
2014-03-09 13:07:12.260,2.336741,2.6431987,9.193734
2014-03-09 13:07:12.269,2.9879637,1.9919758,9.959879
2014-03-09 13:07:12.290,2.9496565,1.9536686,10.266336
2014-03-09 13:07:12.309,2.2601264,2.1452048,9.461885
2014-03-09 13:07:12.320,1.4173675,1.9919758,7.967903
2014-03-09 13:07:12.344,1.1492168,2.1068976,6.8186865
2014-03-09 13:07:12.355,1.685518,2.3750482,7.240066
2014-03-09 13:07:12.369,2.336741,2.3750482,8.734048
2014-03-09 13:07:12.396,2.7581203,1.8004397,9.80665
2014-03-09 13:07:12.400,2.719813,1.4173675,9.615114
2014-03-09 13:07:12.419,2.9496565,1.1492168,8.580819
2014-03-09 13:07:12.428,3.217807,1.8004397,6.3589997
2014-03-09 13:07:12.447,3.8307228,2.9879637,5.861006
2014-03-09 13:07:12.459,4.4436383,3.371036,6.7803793
2014-03-09 13:07:12.479,5.094861,2.2218192,6.933608
2014-03-09 13:07:12.500,5.133168,1.4556746,6.3206925
2014-03-09 13:07:12.509,4.711789,1.4173675,5.0182467
2014-03-09 13:07:12.529,5.209783,1.9536686,3.9073372
2014-03-09 13:07:12.550,7.086837,1.532289,5.861006
2014-03-09 13:07:12.559,8.542512,1.3024458,9.998186
2014-03-09 13:07:12.579,9.193734,0.076614454,13.369223
2014-03-09 13:07:12.593,6.167464,-1.4173675,14.78659
2014-03-09 13:07:12.609,4.405331,0.19153613,12.5264635
2014-03-09 13:07:12.619,4.098873,1.6472107,10.419566
2014-03-09 13:07:12.641,3.4476504,2.6048915,10.381259
2014-03-09 13:07:12.650,3.0262709,1.1492168,10.91756
2014-03-09 13:07:12.669,1.8004397,0.30645782,10.802638
2014-03-09 13:07:12.690,2.030283,1.7621324,11.453861
2014-03-09 13:07:12.700,3.9839516,2.873042,13.484144
2014-03-09 13:07:12.720,4.213795,2.030283,13.560759
2014-03-09 13:07:12.751,3.7924154,0.80445176,12.909535
2014-03-09 13:07:12.784,3.4859576,0.49799395,12.564771
2014-03-09 13:07:12.803,2.873042,1.1875241,11.262324
2014-03-09 13:07:12.805,1.4173675,3.0262709,9.615114
2014-03-09 13:07:12.819,-0.076614454,5.094861,8.159439
2014-03-09 13:07:12.823,0.2681506,3.064578,7.8529816
2014-03-09 13:07:12.829,2.030283,-1.2258313,8.887277
2014-03-09 13:07:12.851,2.9496565,-1.7238252,9.883265
2014-03-09 13:07:12.859,2.4133554,0.8810662,9.921572
2014-03-09 13:07:12.878,1.340753,3.9839516,8.236053
2014-03-09 13:07:12.889,1.0342951,4.673482,6.7803793
2014-03-09 13:07:12.908,2.719813,3.1794999,5.66947
2014-03-09 13:07:12.918,3.9073372,-0.19153613,8.504205
2014-03-09 13:07:12.939,5.056554,-1.7238252,10.879252
2014-03-09 13:07:12.958,4.865018,0.2681506,10.189722
2014-03-09 13:07:12.969,4.060566,2.1452048,8.504205
2014-03-09 13:07:12.989,4.175488,1.2258313,8.542512
2014-03-09 13:07:12.998,5.056554,0.7661445,9.232041
2014-03-09 13:07:13.019,5.3247046,-0.076614454,9.921572
2014-03-09 13:07:13.042,4.903325,0.4213795,9.768343
2014-03-09 13:07:13.049,4.213795,1.4173675,9.423578
2014-03-09 13:07:13.071,3.4859576,1.685518,9.308656
2014-03-09 13:07:13.079,3.2944214,1.2641385,9.232041
2014-03-09 13:07:13.103,3.5625722,0.8810662,9.155427
2014-03-09 13:07:13.116,3.86903,-0.34476504,9.308656
2014-03-09 13:07:13.182,3.7541082,-0.5363012,9.385271
2014-03-09 13:07:13.186,3.6391866,-0.30645782,9.653421
2014-03-09 13:07:13.187,3.5625722,0.038307227,9.461885
2014-03-09 13:07:13.193,3.7924154,0.61291564,9.232041
2014-03-09 13:07:13.216,4.175488,1.1492168,9.844957
2014-03-09 13:07:13.297,4.405331,1.0342951,9.730036
2014-03-09 13:07:13.302,4.098873,0.9959879,9.078813
2014-03-09 13:07:13.303,2.873042,1.4939818,7.776367
2014-03-09 13:07:13.307,1.685518,1.8004397,7.240066
2014-03-09 13:07:13.312,1.0726024,1.8387469,7.086837
2014-03-09 13:07:13.318,2.030283,1.8770541,6.3589997
2014-03-09 13:07:13.323,3.7541082,2.3750482,6.129156
2014-03-09 13:07:13.328,4.5202527,1.3024458,7.8146744
2014-03-09 13:07:13.345,4.7500963,0.9959879,8.580819
2014-03-09 13:07:13.349,5.4779334,1.1492168,8.350976
2014-03-09 13:07:13.369,6.129156,0.80445176,6.8569937
2014-03-09 13:07:13.379,3.3327289,2.6048915,3.1028855
2014-03-09 13:07:13.400,3.9456444,4.9416323,-0.80445176
2014-03-09 13:07:13.419,4.673482,6.205771,-1.6089035
2014-03-09 13:07:13.428,4.9799395,7.240066,-0.8810662
2014-03-09 13:07:13.449,4.5202527,7.201759,-1.1109096
2014-03-09 13:07:13.459,5.171476,6.244078,-4.0222588
2014-03-09 13:07:13.479,3.9456444,7.393295,-9.5385
2014-03-09 13:07:13.499,3.4093432,7.73806,-13.215993
2014-03-09 13:07:13.508,6.0142345,11.760319,-12.871228
2014-03-09 13:07:13.528,6.4739213,16.242264,-5.8226986
2014-03-09 13:07:13.539,7.699753,19.536686,-0.076614454
2014-03-09 13:07:13.558,8.236053,19.115307,-0.7278373
2014-03-09 13:07:13.569,5.66947,11.683704,0.2681506
2014-03-09 13:07:13.590,5.5162406,5.401319,-3.2561142
2014-03-09 13:07:13.607,6.7803793,2.9496565,-2.3750482
2014-03-09 13:07:13.618,6.2823853,1.3024458,-1.8004397
2014-03-09 13:07:13.641,7.469909,1.5705963,1.340753
2014-03-09 13:07:13.649,6.8569937,3.5242648,1.3024458
2014-03-09 13:07:13.669,3.5625722,8.350976,-2.183512
2014-03-09 13:07:13.689,4.0222588,12.220005,-4.098873
2014-03-09 13:07:13.699,5.2863975,10.304645,-7.240066
2014-03-09 13:07:13.719,6.244078,6.895301,-7.240066
2014-03-09 13:07:13.729,5.209783,4.865018,-6.167464
2014-03-09 13:07:13.749,2.7581203,3.715801,-3.1411927
2014-03-09 13:07:13.759,1.8004397,0.19153613,0.7661445
2014-03-09 13:07:13.779,4.6351743,3.2561142,-0.34476504
2014-03-09 13:07:13.799,5.554548,0.49799395,-2.6431987
2014-03-09 13:07:13.809,10.91756,3.5242648,-1.4939818
2014-03-09 13:07:13.829,7.0102224,3.7541082,-0.38307226
2014-03-09 13:07:13.840,1.340753,1.9919758,-1.2641385
2014-03-09 13:07:13.860,2.9113493,0.9959879,-1.3790601
2014-03-09 13:07:13.879,6.5122285,1.2641385,2.4133554
2014-03-09 13:07:13.890,4.2904096,-0.076614454,2.336741
2014-03-09 13:07:13.909,3.5242648,-1.7621324,1.4939818
2014-03-09 13:07:13.919,2.719813,-1.0342951,0.6895301
2014-03-09 13:07:13.946,10.726024,-1.0726024,-1.0342951
2014-03-09 13:07:13.949,19.6133,-18.65562,0.19153613
2014-03-09 13:07:13.969,15.859192,-12.373235,4.9416323
2014-03-09 13:07:13.990,19.6133,-13.713987,8.121132
2014-03-09 13:07:13.999,17.927782,2.2218192,2.1452048
2014-03-09 13:07:14.019,9.193734,0.45968673,-5.363012
2014-03-09 13:07:14.029,7.8146744,0.19153613,1.3024458
2014-03-09 13:07:14.052,8.772355,-0.61291564,3.217807
2014-03-09 13:07:14.069,9.5385,-1.4173675,0.38307226
2014-03-09 13:07:14.080,9.653421,-1.9536686,-1.3024458
2014-03-09 13:07:14.099,9.193734,-2.681506,-1.7621324
2014-03-09 13:07:14.109,8.504205,-3.1028855,-1.685518
2014-03-09 13:07:14.129,8.121132,-3.0262709,-1.4173675
2014-03-09 13:07:14.146,8.159439,-2.4133554,-0.6895301
2014-03-09 13:07:14.159,8.465898,-1.340753,-0.22984336
2014-03-09 13:07:14.179,9.078813,-1.9536686,0.38307226
2014-03-09 13:07:14.198,10.649409,-2.3750482,1.6089035
2014-03-09 13:07:14.220,9.768343,-0.6512229,-0.9959879
2014-03-09 13:07:14.222,9.500193,-1.9919758,-1.0726024
2014-03-09 13:07:14.241,10.457873,-3.064578,-0.11492168
2014-03-09 13:07:14.261,9.11712,-4.0222588,-1.1492168
2014-03-09 13:07:14.269,9.80665,-4.8267107,0.38307226
2014-03-09 13:07:14.291,11.415554,-4.1371803,0.076614454
2014-03-09 13:07:14.313,8.772355,-3.1028855,-2.2601264
2014-03-09 13:07:14.321,6.8186865,-2.566584,-2.1068976
2014-03-09 13:07:14.330,7.8146744,-3.7541082,0.038307227
2014-03-09 13:07:14.366,10.572795,-5.209783,1.4556746
2014-03-09 13:07:14.386,10.764331,-5.746084,0.19153613
2014-03-09 13:07:14.392,10.381259,-5.2480903,-1.340753
2014-03-09 13:07:14.400,8.580819,-4.213795,-1.7238252
2014-03-09 13:07:14.408,7.5848308,-3.5625722,-1.532289
2014-03-09 13:07:14.429,7.2783732,-3.7541082,-0.61291564
2014-03-09 13:07:14.442,6.8186865,-3.1411927,2.3750482
2014-03-09 13:07:14.459,8.159439,-2.9496565,-2.3750482
2014-03-09 13:07:14.479,8.00621,-3.5242648,-3.217807
2014-03-09 13:07:14.492,8.504205,-5.171476,-1.1109096
2014-03-09 13:07:14.509,9.155427,-5.746084,-0.076614454
2014-03-09 13:07:14.529,9.11712,-5.3247046,-0.5746084
2014-03-09 13:07:14.539,8.312668,-4.5202527,-1.532289
2014-03-09 13:07:14.558,7.3549876,-3.6774938,-1.2258313
2014-03-09 13:07:14.569,7.73806,-1.8770541,-3.217807
2014-03-09 13:07:14.605,8.810662,-2.183512,-0.9959879
2014-03-09 13:07:14.624,9.768343,-3.1028855,-1.9919758
2014-03-09 13:07:14.640,8.963891,-3.3327289,-2.030283
2014-03-09 13:07:14.651,8.082825,-3.064578,-2.7964275
2014-03-09 13:07:14.670,7.6231384,-3.1411927,-2.9879637
2014-03-09 13:07:14.682,8.619126,-4.098873,-3.1794999
2014-03-09 13:07:14.701,10.036493,-4.596867,-3.1794999
2014-03-09 13:07:14.719,9.653421,-4.4436383,-2.4516625
2014-03-09 13:07:14.730,8.542512,-3.5242648,-2.9879637
2014-03-09 13:07:14.750,7.393295,-3.5242648,-2.7964275
2014-03-09 13:07:14.761,5.3247046,-2.4899697,-3.1411927
2014-03-09 13:07:14.780,3.86903,-1.3024458,-2.834735
2014-03-09 13:07:14.791,7.929596,-3.2561142,-1.4939818
2014-03-09 13:07:14.810,9.844957,-4.903325,-2.1452048
2014-03-09 13:07:14.830,7.73806,-4.175488,-2.873042
2014-03-09 13:07:14.842,6.895301,-3.9456444,-2.719813
2014-03-09 13:07:14.860,7.3166804,-4.7500963,-2.4133554
2014-03-09 13:07:14.870,7.929596,-4.711789,-2.528277
2014-03-09 13:07:14.891,9.461885,-3.9839516,-2.4516625
2014-03-09 13:07:14.902,10.802638,-4.098873,-2.528277
2014-03-09 13:07:14.918,9.423578,-5.094861,-2.2601264
2014-03-09 13:07:14.939,8.887277,-5.4779334,-0.9576807
2014-03-09 13:07:14.949,7.73806,-3.86903,-1.6472107
2014-03-09 13:07:14.969,6.0142345,-2.6048915,-2.834735
2014-03-09 13:07:14.992,6.6271505,-3.8307228,-2.719813
2014-03-09 13:07:14.999,7.699753,-4.4436383,-2.4899697
2014-03-09 13:07:15.018,8.082825,-4.175488,-2.6048915
2014-03-09 13:07:15.031,8.734048,-4.6351743,-2.566584
2014-03-09 13:07:15.050,10.266336,-5.2863975,-1.4939818
2014-03-09 13:07:15.060,9.040505,-4.5202527,-2.528277
2014-03-09 13:07:15.080,8.121132,-3.9456444,-2.6048915
2014-03-09 13:07:15.100,6.5122285,-4.0222588,-2.2601264
2014-03-09 13:07:15.110,5.554548,-4.4436383,-1.7621324
2014-03-09 13:07:15.131,6.129156,-4.6351743,-1.8004397
2014-03-09 13:07:15.142,9.193734,-5.5162406,-1.0342951
2014-03-09 13:07:15.160,11.262324,-5.631162,-1.532289
2014-03-09 13:07:15.180,9.959879,-4.213795,-2.0685902
2014-03-09 13:07:15.191,7.431602,-4.3287168,-1.9919758
2014-03-09 13:07:15.210,6.205771,-4.2904096,-2.1452048
2014-03-09 13:07:15.221,7.240066,-4.0222588,-1.9536686
2014-03-09 13:07:15.241,8.848969,-4.6351743,-1.340753
2014-03-09 13:07:15.250,10.113108,-5.0182467,-1.0342951
2014-03-09 13:07:15.270,8.197746,-4.5202527,-2.1452048
2014-03-09 13:07:15.291,8.542512,-4.4436383,-1.5705963
2014-03-09 13:07:15.300,8.963891,-4.7884035,-1.0726024
2014-03-09 13:07:15.319,9.232041,-4.865018,-1.532289
2014-03-09 13:07:15.330,7.8529816,-3.9073372,-2.0685902
2014-03-09 13:07:15.350,6.8186865,-4.2521024,-1.4939818
2014-03-09 13:07:15.370,7.967903,-4.711789,-1.3024458
2014-03-09 13:07:15.379,8.42759,-4.8267107,-1.340753
2014-03-09 13:07:15.399,8.274361,-4.6351743,-1.4939818
2014-03-09 13:07:15.410,8.465898,-4.6351743,-1.4939818
2014-03-09 13:07:15.430,8.159439,-4.4436383,-1.9536686
2014-03-09 13:07:15.440,8.274361,-4.405331,-1.8387469
2014-03-09 13:07:15.459,8.121132,-4.2904096,-1.4939818
2014-03-09 13:07:15.479,7.5465236,-3.8307228,-1.3790601
2014-03-09 13:07:15.493,7.929596,-4.0222588,-1.532289
2014-03-09 13:07:15.510,7.929596,-4.175488,-1.8387469
2014-03-09 13:07:15.519,8.274361,-4.4819455,-1.7238252
2014-03-09 13:07:15.541,7.8146744,-4.596867,-1.7621324
2014-03-09 13:07:15.554,7.8146744,-4.55856,-1.5705963
2014-03-09 13:07:15.569,8.350976,-4.55856,-1.6472107
2014-03-09 13:07:15.593,9.040505,-4.367024,-1.5705963
2014-03-09 13:07:15.599,9.155427,-4.673482,-1.6089035
2014-03-09 13:07:15.619,7.929596,-4.55856,-1.685518
2014-03-09 13:07:15.639,7.6614456,-4.3287168,-1.7238252
2014-03-09 13:07:15.649,8.465898,-4.405331,-1.4556746
2014-03-09 13:07:15.669,8.848969,-4.711789,-1.3024458
2014-03-09 13:07:15.678,8.274361,-4.55856,-1.5705963
2014-03-09 13:07:15.699,7.929596,-4.3287168,-1.7238252
2014-03-09 13:07:15.709,8.236053,-4.596867,-1.532289
2014-03-09 13:07:15.730,8.504205,-4.596867,-1.8387469
2014-03-09 13:07:15.744,8.848969,-4.596867,-1.8387469
2014-03-09 13:07:15.759,8.887277,-4.2904096,-1.4939818
2014-03-09 13:07:15.779,8.312668,-4.060566,-1.0342951
2014-03-09 13:07:15.792,8.42759,-4.405331,-1.0342951
2014-03-09 13:07:15.809,8.0445175,-4.0222588,-2.4133554
2014-03-09 13:07:15.829,8.274361,-4.2521024,-2.719813
2014-03-09 13:07:15.839,8.350976,-4.3287168,-2.336741
2014-03-09 13:07:15.859,8.465898,-4.175488,-1.532289
2014-03-09 13:07:15.870,8.350976,-4.2904096,-1.4173675
2014-03-09 13:07:15.900,7.8912888,-4.596867,-1.685518
2014-03-09 13:07:15.902,7.8912888,-4.4436383,-1.8770541
2014-03-09 13:07:15.919,7.8146744,-4.2521024,-1.9536686
2014-03-09 13:07:15.940,8.082825,-4.4436383,-1.8004397
2014-03-09 13:07:15.950,8.619126,-4.6351743,-1.4939818
2014-03-09 13:07:15.970,8.542512,-4.673482,-1.685518
2014-03-09 13:07:15.979,8.121132,-4.55856,-1.8770541
2014-03-09 13:07:15.999,8.197746,-4.4436383,-1.9153614
2014-03-09 13:07:16.019,8.734048,-4.596867,-1.7621324
2014-03-09 13:07:16.030,8.236053,-4.405331,-1.8004397
2014-03-09 13:07:16.050,8.42759,-4.5202527,-1.4173675
2014-03-09 13:07:16.060,9.002198,-5.056554,-0.6895301
2014-03-09 13:07:16.079,8.159439,-4.7500963,-0.6512229
2014-03-09 13:07:16.091,7.5082164,-4.4436383,-0.45968673
2014-03-09 13:07:16.110,7.776367,-4.367024,-1.1875241
2014-03-09 13:07:16.130,8.159439,-4.711789,-2.183512
2014-03-09 13:07:16.141,8.00621,-4.596867,-2.528277
2014-03-09 13:07:16.159,8.00621,-4.596867,-2.2984335
2014-03-09 13:07:16.170,7.699753,-4.2521024,-1.8770541
2014-03-09 13:07:16.191,7.73806,-4.175488,-1.1875241
2014-03-09 13:07:16.220,8.0445175,-4.2521024,-0.9959879
2014-03-09 13:07:16.227,8.504205,-4.175488,-1.0726024
2014-03-09 13:07:16.244,8.6574335,-4.2521024,-1.5705963
2014-03-09 13:07:16.255,8.159439,-4.367024,-1.685518
2014-03-09 13:07:16.271,7.6231384,-4.2521024,-1.4939818
2014-03-09 13:07:16.291,7.431602,-3.715801,-1.3024458
2014-03-09 13:07:16.301,8.734048,-4.596867,-0.5746084
2014-03-09 13:07:16.319,9.959879,-5.554548,-0.842759
2014-03-09 13:07:16.331,9.002198,-4.596867,-1.6089035
2014-03-09 13:07:16.351,8.121132,-4.865018,-0.91937345
2014-03-09 13:07:16.363,8.236053,-4.6351743,-0.9959879
2014-03-09 13:07:16.382,8.0445175,-4.6351743,-1.1109096
2014-03-09 13:07:16.399,7.469909,-4.2521024,-1.4173675
2014-03-09 13:07:16.411,7.5848308,-4.0222588,-1.4939818
2014-03-09 13:07:16.431,7.8529816,-4.098873,-1.7238252
2014-03-09 13:07:16.442,8.350976,-4.0222588,-1.6089035
2014-03-09 13:07:16.460,8.6574335,-4.175488,-1.3024458
2014-03-09 13:07:16.479,8.0445175,-4.2521024,-1.1109096
2014-03-09 13:07:16.492,8.121132,-4.7500963,-0.6895301
2014-03-09 13:07:16.510,9.270349,-4.903325,-1.1109096
2014-03-09 13:07:16.521,10.113108,-4.098873,-1.4173675
2014-03-09 13:07:16.540,9.921572,-3.715801,-1.340753
2014-03-09 13:07:16.551,9.730036,-3.5625722,-1.1492168
2014-03-09 13:07:16.570,9.155427,-3.9073372,-0.80445176
2014-03-09 13:07:16.592,8.121132,-4.4436383,-0.7661445
2014-03-09 13:07:16.606,7.3166804,-4.367024,-0.4213795
2014-03-09 13:07:16.619,7.699753,-3.6008794,-0.15322891
2014-03-09 13:07:16.630,9.270349,-3.7541082,-0.38307226
2014-03-09 13:07:16.652,9.883265,-3.86903,-1.1492168
2014-03-09 13:07:16.669,8.619126,-3.8307228,-1.4556746
2014-03-09 13:07:16.678,6.7803793,-4.175488,-1.3790601
2014-03-09 13:07:16.699,7.3166804,-4.213795,-0.45968673
2014-03-09 13:07:16.709,8.274361,-4.098873,-0.2681506
2014-03-09 13:07:16.729,9.040505,-4.367024,-0.5746084
2014-03-09 13:07:16.739,9.500193,-4.5202527,-0.842759
2014-03-09 13:07:16.759,8.848969,-4.4436383,-1.4939818
2014-03-09 13:07:16.779,8.197746,-4.213795,-1.3024458
2014-03-09 13:07:16.791,7.929596,-4.175488,-0.9576807
2014-03-09 13:07:16.809,7.8146744,-4.3287168,-0.842759
2014-03-09 13:07:16.818,7.5465236,-4.098873,-1.532289
2014-03-09 13:07:16.839,8.00621,-4.098873,-1.8387469
2014-03-09 13:07:16.859,9.385271,-4.0222588,-1.4556746
2014-03-09 13:07:16.869,9.921572,-4.5202527,-0.8810662
2014-03-09 13:07:16.891,9.002198,-4.55856,-0.8810662
2014-03-09 13:07:16.899,8.350976,-4.367024,-0.8810662
2014-03-09 13:07:16.925,8.197746,-4.1371803,-0.842759
2014-03-09 13:07:16.929,8.159439,-4.213795,-1.0726024
2014-03-09 13:07:16.951,8.542512,-4.175488,-1.3024458
2014-03-09 13:07:16.971,8.504205,-4.098873,-1.5705963
2014-03-09 13:07:16.982,9.078813,-4.405331,-0.6895301
2014-03-09 13:07:17.002,8.6574335,-4.060566,-0.8810662
2014-03-09 13:07:17.009,7.3549876,-4.060566,-1.8387469
2014-03-09 13:07:17.029,8.465898,-4.2904096,-1.4939818
2014-03-09 13:07:17.039,8.465898,-4.098873,-1.4173675
2014-03-09 13:07:17.059,7.776367,-4.367024,-0.7661445
2014-03-09 13:07:17.079,8.6574335,-4.6351743,-0.45968673
2014-03-09 13:07:17.090,8.619126,-4.2904096,-1.1109096
2014-03-09 13:07:17.116,8.0445175,-4.098873,-1.6472107
2014-03-09 13:07:17.130,8.619126,-4.060566,-1.4173675
2014-03-09 13:07:17.143,8.580819,-3.9839516,-1.6472107
2014-03-09 13:07:17.159,8.772355,-4.2521024,-1.7238252
2014-03-09 13:07:17.170,8.695741,-4.367024,-1.4939818
2014-03-09 13:07:17.191,8.236053,-4.367024,-1.4173675
2014-03-09 13:07:17.202,7.73806,-4.55856,-1.1492168
2014-03-09 13:07:17.219,8.542512,-4.903325,-0.80445176
2014-03-09 13:07:17.240,8.6574335,-4.4436383,-0.9576807
2014-03-09 13:07:17.251,8.082825,-4.367024,-0.7661445
2014-03-09 13:07:17.270,7.967903,-4.405331,-0.7661445
2014-03-09 13:07:17.280,8.389283,-4.2904096,-0.8810662
2014-03-09 13:07:17.300,8.42759,-4.2904096,-1.2258313
2014-03-09 13:07:17.319,8.082825,-4.213795,-1.6472107
2014-03-09 13:07:17.331,8.6574335,-4.405331,-1.4556746
2014-03-09 13:07:17.351,9.232041,-4.405331,-0.8810662
2014-03-09 13:07:17.361,8.887277,-4.405331,-0.45968673
2014-03-09 13:07:17.379,8.350976,-4.5202527,-0.5746084
2014-03-09 13:07:17.391,8.619126,-4.367024,-1.0726024
2014-03-09 13:07:17.411,8.695741,-4.3287168,-1.3024458
2014-03-09 13:07:17.430,8.6574335,-4.3287168,-1.2258313
2014-03-09 13:07:17.442,8.197746,-4.175488,-1.0342951
2014-03-09 13:07:17.459,7.5848308,-3.8307228,-0.8810662
2014-03-09 13:07:17.470,8.0445175,-3.86903,-0.7278373
2014-03-09 13:07:17.497,8.197746,-4.405331,-0.9959879
2014-03-09 13:07:17.510,8.465898,-4.55856,-1.1109096
2014-03-09 13:07:17.521,8.772355,-4.405331,-1.0342951
2014-03-09 13:07:17.540,8.887277,-4.0222588,-0.9959879
2014-03-09 13:07:17.550,8.810662,-4.0222588,-1.0342951
2014-03-09 13:07:17.570,8.580819,-4.2521024,-0.49799395
2014-03-09 13:07:17.591,8.274361,-4.4436383,-0.45968673
2014-03-09 13:07:17.602,8.121132,-4.2904096,-0.4213795
2014-03-09 13:07:17.621,9.11712,-3.86903,-0.4213795
2014-03-09 13:07:17.630,10.113108,-4.060566,-0.7278373
2014-03-09 13:07:17.650,10.036493,-3.5625722,-0.7661445
2014-03-09 13:07:17.662,8.887277,-3.7541082,-0.80445176
2014-03-09 13:07:17.680,7.6231384,-4.060566,-0.34476504
2014-03-09 13:07:17.702,6.7803793,-4.4819455,0.19153613
2014-03-09 13:07:17.708,7.3166804,-4.55856,-0.4213795
2014-03-09 13:07:17.729,8.6574335,-4.3287168,-0.9959879
2014-03-09 13:07:17.739,9.078813,-3.9073372,-0.49799395
2014-03-09 13:07:17.758,9.11712,-4.0222588,-0.2681506
2014-03-09 13:07:17.779,8.734048,-4.060566,-0.4213795
2014-03-09 13:07:17.789,8.389283,-3.7924154,0.22984336
2014-03-09 13:07:17.809,8.159439,-4.2904096,-0.6512229
2014-03-09 13:07:17.823,8.236053,-4.213795,-1.1875241
2014-03-09 13:07:17.839,8.504205,-4.098873,-0.842759
2014-03-09 13:07:17.849,8.963891,-4.1371803,-0.5746084
2014-03-09 13:07:17.869,8.925584,-3.9456444,-0.842759
2014-03-09 13:07:17.898,8.504205,-3.6391866,-1.0342951
2014-03-09 13:07:17.919,8.42759,-3.9073372,-1.1875241
2014-03-09 13:07:17.930,8.580819,-4.2521024,-1.0726024
2014-03-09 13:07:17.949,8.772355,-4.2521024,-1.0726024
2014-03-09 13:07:17.969,8.772355,-4.5202527,-1.5705963
2014-03-09 13:07:17.979,8.350976,-4.405331,-1.6089035
2014-03-09 13:07:17.999,8.082825,-4.098873,-1.3024458
2014-03-09 13:07:18.009,8.197746,-4.175488,-1.1109096
2014-03-09 13:07:18.029,8.848969,-4.060566,-0.30645782
2014-03-09 13:07:18.043,9.576807,-3.8307228,0.0
2014-03-09 13:07:18.059,8.963891,-3.9073372,-0.7278373
2014-03-09 13:07:18.079,8.542512,-3.9839516,-1.6089035
2014-03-09 13:07:18.092,8.274361,-4.1371803,-2.1068976
2014-03-09 13:07:18.110,8.350976,-4.3287168,-1.8387469
2014-03-09 13:07:18.120,8.42759,-4.4436383,-1.3024458
2014-03-09 13:07:18.141,8.236053,-4.060566,-0.38307226
2014-03-09 13:07:18.159,8.6574335,-3.715801,-0.5363012
2014-03-09 13:07:18.170,8.619126,-4.098873,-1.7238252
2014-03-09 13:07:18.191,8.810662,-3.9073372,-2.2218192
2014-03-09 13:07:18.201,8.236053,-4.3287168,-2.030283
2014-03-09 13:07:18.219,8.619126,-4.2904096,-1.2641385
2014-03-09 13:07:18.230,8.350976,-4.2904096,-1.2641385
2014-03-09 13:07:18.256,8.00621,-4.175488,-1.532289
2014-03-09 13:07:18.271,8.312668,-3.9073372,-1.685518
2014-03-09 13:07:18.281,8.274361,-3.6774938,-1.685518
2014-03-09 13:07:18.300,8.465898,-3.86903,-1.6089035
2014-03-09 13:07:18.311,8.542512,-4.213795,-1.9536686
2014-03-09 13:07:18.331,8.580819,-4.213795,-1.6089035
2014-03-09 13:07:18.351,8.312668,-4.213795,-1.340753
2014-03-09 13:07:18.361,8.197746,-4.3287168,-1.1875241
2014-03-09 13:07:18.379,8.312668,-4.060566,-1.4939818
2014-03-09 13:07:18.392,8.810662,-4.1371803,-1.6472107
2014-03-09 13:07:18.410,8.887277,-4.2521024,-1.4556746
2014-03-09 13:07:18.421,8.504205,-4.060566,-1.4556746
2014-03-09 13:07:18.445,8.925584,-4.865018,-1.1109096
2014-03-09 13:07:18.466,7.8912888,-4.367024,-1.1875241
2014-03-09 13:07:18.470,8.619126,-5.209783,-1.4939818
2014-03-09 13:07:18.493,8.848969,-5.5162406,-1.3790601
2014-03-09 13:07:18.510,8.772355,-5.094861,-1.4556746
2014-03-09 13:07:18.519,8.274361,-4.903325,-1.4173675
2014-03-09 13:07:18.539,7.201759,-3.7924154,-1.7621324
2014-03-09 13:07:18.549,7.393295,-3.064578,-1.8387469
2014-03-09 13:07:18.569,9.002198,-3.5625722,-2.336741
2014-03-09 13:07:18.578,9.691729,-4.6351743,-2.4516625
2014-03-09 13:07:18.599,9.002198,-5.171476,-2.3750482
2014-03-09 13:07:18.619,7.73806,-4.903325,-2.183512
2014-03-09 13:07:18.629,7.431602,-4.175488,-1.8770541
2014-03-09 13:07:18.650,7.469909,-3.371036,-1.8770541
2014-03-09 13:07:18.659,8.274361,-3.217807,-1.9153614
2014-03-09 13:07:18.679,8.772355,-3.86903,-1.7238252
2014-03-09 13:07:18.694,7.8146744,-3.715801,-1.4173675
2014-03-09 13:07:18.710,7.5082164,-3.8307228,-1.8004397
2014-03-09 13:07:18.731,8.389283,-3.9073372,-1.9153614
2014-03-09 13:07:18.745,9.385271,-4.903325,-1.6089035
2014-03-09 13:07:18.762,9.883265,-5.439626,-1.4939818
2014-03-09 13:07:18.769,9.232041,-4.3287168,-1.9153614
2014-03-09 13:07:18.789,7.8146744,-4.0222588,-1.5705963
2014-03-09 13:07:18.809,6.0525417,-3.9456444,-1.6472107
2014-03-09 13:07:18.818,6.5505357,-3.9073372,-1.8387469
2014-03-09 13:07:18.839,8.848969,-4.175488,-1.532289
2014-03-09 13:07:18.849,10.266336,-3.7541082,-1.4939818
2014-03-09 13:07:18.869,10.572795,-3.5625722,-1.0726024
2014-03-09 13:07:18.879,9.308656,-2.2601264,-1.6472107
2014-03-09 13:07:18.899,9.155427,-2.2218192,-1.3790601
2014-03-09 13:07:18.919,9.346964,-3.6774938,-0.9576807
2014-03-09 13:07:18.929,7.967903,-3.217807,-1.3024458
2014-03-09 13:07:18.949,7.0102224,-1.4939818,-0.9959879
2014-03-09 13:07:18.958,7.776367,-0.5363012,-0.91937345
2014-03-09 13:07:18.978,9.844957,-1.6089035,-0.22984336
2014-03-09 13:07:18.999,10.304645,-2.9113493,0.11492168
2014-03-09 13:07:19.009,9.232041,-2.9113493,-1.2641385
2014-03-09 13:07:19.030,8.887277,-2.1452048,-1.9919758
2014-03-09 13:07:19.041,9.040505,-1.5705963,-1.9536686
2014-03-09 13:07:19.059,9.002198,-2.2601264,-1.8387469
2014-03-09 13:07:19.079,8.848969,-2.4133554,-1.7621324
2014-03-09 13:07:19.090,8.848969,-2.7581203,-1.685518
2014-03-09 13:07:19.101,8.734048,-2.7581203,-1.6472107
2014-03-09 13:07:19.120,8.772355,-2.1452048,-2.030283
2014-03-09 13:07:19.141,8.925584,-1.9919758,-2.336741
2014-03-09 13:07:19.150,8.925584,-2.2984335,-2.183512
2014-03-09 13:07:19.170,9.193734,-1.9536686,-1.8004397
2014-03-09 13:07:19.191,8.963891,-1.3790601,-1.8770541
2014-03-09 13:07:19.221,8.734048,-1.6472107,-1.7621324
2014-03-09 13:07:19.251,8.887277,-2.2984335,-1.7238252
2014-03-09 13:07:19.252,9.002198,-2.336741,-1.8770541
2014-03-09 13:07:19.256,8.963891,-2.336741,-1.9536686
2014-03-09 13:07:19.269,8.848969,-2.1452048,-1.8770541
2014-03-09 13:07:19.281,8.848969,-1.3790601,-2.4133554
2014-03-09 13:07:19.299,9.270349,-0.80445176,-2.7581203
2014-03-09 13:07:19.309,8.810662,-1.1875241,-2.2218192
2014-03-09 13:07:19.329,8.772355,-1.7238252,-1.5705963
2014-03-09 13:07:19.339,9.232041,-1.8004397,-1.4556746
2014-03-09 13:07:19.359,9.385271,-2.030283,-1.6472107
2014-03-09 13:07:19.379,8.887277,-2.1452048,-1.9153614
2014-03-09 13:07:19.394,8.772355,-1.8770541,-2.4899697
2014-03-09 13:07:19.410,8.197746,-1.1109096,-2.834735
2014-03-09 13:07:19.421,8.619126,-0.80445176,-2.1068976
2014-03-09 13:07:19.441,8.6574335,-1.5705963,-1.8770541
2014-03-09 13:07:19.460,9.002198,-5.899313,-0.6512229
2014-03-09 13:07:19.470,11.070788,-7.6614456,0.842759
2014-03-09 13:07:19.492,8.810662,-3.217807,-4.1371803
2014-03-09 13:07:19.504,7.8146744,2.030283,-5.707777
2014-03-09 13:07:19.521,8.465898,4.2521024,-4.175488
2014-03-09 13:07:19.530,8.159439,2.4899697,-2.566584
2014-03-09 13:07:19.551,8.6574335,1.8004397,-1.3024458
2014-03-09 13:07:19.569,7.967903,0.9576807,-1.8004397
2014-03-09 13:07:19.578,7.086837,0.19153613,-1.0342951
2014-03-09 13:07:19.599,9.576807,-1.9919758,0.38307226
2014-03-09 13:07:19.609,10.496181,-2.566584,-0.2681506
2014-03-09 13:07:19.629,11.683704,-3.7541082,-1.4173675
2014-03-09 13:07:19.653,12.373235,-4.7884035,-2.2601264
2014-03-09 13:07:19.664,10.879252,-5.094861,-2.4899697
2014-03-09 13:07:19.680,9.040505,-4.367024,-2.2601264
2014-03-09 13:07:19.691,8.925584,-3.1411927,-2.2218192
2014-03-09 13:07:19.709,8.925584,-1.6089035,-2.4133554
2014-03-09 13:07:19.729,8.42759,-0.7278373,-2.681506
2014-03-09 13:07:19.739,8.465898,-0.5363012,-2.4899697
2014-03-09 13:07:19.763,9.040505,-0.7661445,-2.1452048
2014-03-09 13:07:19.769,9.040505,-0.7661445,-1.9536686
2014-03-09 13:07:19.790,8.925584,-0.7278373,-2.1452048
2014-03-09 13:07:19.799,8.887277,-0.80445176,-2.0685902
2014-03-09 13:07:19.819,9.040505,-0.9959879,-2.2218192
2014-03-09 13:07:19.839,9.11712,-1.340753,-2.2218192
2014-03-09 13:07:19.854,9.653421,-1.6472107,-1.8770541
2014-03-09 13:07:19.872,9.730036,-1.532289,-1.8770541
2014-03-09 13:07:19.882,9.385271,-1.532289,-1.6472107
2014-03-09 13:07:19.901,9.002198,-1.7621324,-0.9959879
2014-03-09 13:07:19.919,9.232041,-2.336741,-1.1492168
2014-03-09 13:07:19.929,9.730036,-2.681506,-1.6089035
2014-03-09 13:07:19.949,9.921572,-2.9113493,-1.8387469
2014-03-09 13:07:19.959,9.155427,-2.4516625,-1.340753
2014-03-09 13:07:19.979,8.6574335,-1.7621324,-1.532289
2014-03-09 13:07:19.989,8.963891,-1.0726024,-2.0685902
2014-03-09 13:07:20.009,8.963891,-0.91937345,-2.719813
2014-03-09 13:07:20.029,9.155427,-1.2641385,-2.834735
2014-03-09 13:07:20.039,9.193734,-1.2641385,-2.566584
2014-03-09 13:07:20.061,8.887277,-1.6089035,-2.183512
2014-03-09 13:07:20.070,8.963891,-1.8387469,-2.030283
2014-03-09 13:07:20.092,9.078813,-2.1068976,-2.183512
2014-03-09 13:07:20.110,9.11712,-2.336741,-2.2984335
2014-03-09 13:07:20.121,8.963891,-2.4899697,-2.3750482
2014-03-09 13:07:20.140,8.772355,-2.4133554,-2.4516625
2014-03-09 13:07:20.150,8.6574335,-2.2601264,-2.681506
2014-03-09 13:07:20.170,8.619126,-2.0685902,-2.7964275
2014-03-09 13:07:20.191,8.734048,-1.9536686,-2.873042
2014-03-09 13:07:20.203,8.542512,-1.7238252,-2.873042
2014-03-09 13:07:20.220,8.6574335,-1.4173675,-2.9113493
2014-03-09 13:07:20.230,8.848969,-1.1492168,-2.9113493
2014-03-09 13:07:20.250,8.963891,-0.8810662,-2.834735
2014-03-09 13:07:20.261,9.11712,-0.61291564,-2.7964275
2014-03-09 13:07:20.292,9.270349,-0.6512229,-2.681506
2014-03-09 13:07:20.302,9.500193,-0.7278373,-2.566584
2014-03-09 13:07:20.309,9.615114,-0.80445176,-2.4516625
2014-03-09 13:07:20.329,9.270349,-0.842759,-2.2601264
2014-03-09 13:07:20.339,9.002198,-1.0726024,-2.030283
2014-03-09 13:07:20.359,9.270349,-1.340753,-1.8770541
2014-03-09 13:07:20.379,9.576807,-1.6472107,-1.8770541
2014-03-09 13:07:20.390,9.576807,-1.5705963,-1.9153614
2014-03-09 13:07:20.401,9.308656,-1.5705963,-2.1068976
2014-03-09 13:07:20.420,9.193734,-1.5705963,-2.0685902
2014-03-09 13:07:20.440,9.232041,-1.6472107,-1.9919758
2014-03-09 13:07:20.450,8.963891,-1.4556746,-1.9536686
2014-03-09 13:07:20.470,8.542512,-1.2641385,-1.685518
2014-03-09 13:07:20.491,8.42759,-1.3024458,-1.4173675
2014-03-09 13:07:20.502,8.848969,-1.532289,-1.7621324
2014-03-09 13:07:20.520,9.385271,-1.4939818,-2.1452048
2014-03-09 13:07:20.530,9.653421,-1.340753,-2.3750482
2014-03-09 13:07:20.550,9.883265,-1.0726024,-2.4133554
2014-03-09 13:07:20.570,9.80665,-1.0342951,-2.6431987
2014-03-09 13:07:20.582,9.691729,-1.0342951,-2.4133554
2014-03-09 13:07:20.601,9.5385,-1.1109096,-2.1068976
2014-03-09 13:07:20.609,9.232041,-1.1109096,-1.8387469
2014-03-09 13:07:20.629,9.078813,-1.0342951,-1.7238252
2014-03-09 13:07:20.639,9.270349,-0.9576807,-1.5705963
2014-03-09 13:07:20.658,9.653421,-0.7661445,-1.4939818
2014-03-09 13:07:20.678,9.691729,-0.5363012,-1.4556746
2014-03-09 13:07:20.690,9.423578,-0.4213795,-1.4939818
2014-03-09 13:07:20.709,9.461885,-0.34476504,-1.1109096
2014-03-09 13:07:20.719,8.772355,-0.45968673,-0.6512229
2014-03-09 13:07:20.744,8.810662,-0.61291564,-0.076614454
2014-03-09 13:07:20.759,8.963891,-0.6512229,-0.19153613
2014-03-09 13:07:20.770,8.848969,-0.6512229,-0.45968673
2014-03-09 13:07:20.791,7.8912888,-0.4213795,-0.5363012
2014-03-09 13:07:20.802,8.312668,-0.2681506,-0.61291564
2014-03-09 13:07:20.819,10.611102,-0.45968673,-0.6512229
2014-03-09 13:07:20.829,12.756307,0.6895301,-0.6512229
2014-03-09 13:07:20.849,10.955867,1.6089035,-1.340753
2014-03-09 13:07:20.869,9.5385,1.685518,-0.6512229
2014-03-09 13:07:20.878,9.5385,1.8770541,-0.49799395
2014-03-09 13:07:20.899,9.921572,1.7238252,-0.22984336
2014-03-09 13:07:20.909,9.730036,1.6089035,-0.11492168
2014-03-09 13:07:20.933,8.772355,0.8810662,0.45968673
2014-03-09 13:07:20.950,8.121132,0.49799395,0.45968673
2014-03-09 13:07:20.961,8.848969,0.19153613,0.5363012
2014-03-09 13:07:20.979,10.572795,-0.19153613,1.4556746
2014-03-09 13:07:20.992,11.33894,-0.5746084,0.9959879
2014-03-09 13:07:21.009,11.722012,-0.7278373,0.34476504
2014-03-09 13:07:21.029,10.228029,-0.91937345,0.34476504
2014-03-09 13:07:21.039,8.695741,-1.532289,1.1109096
2014-03-09 13:07:21.059,8.312668,-2.030283,1.3024458
2014-03-09 13:07:21.069,8.619126,-2.4133554,1.4939818
2014-03-09 13:07:21.092,8.504205,-3.0262709,2.1452048
2014-03-09 13:07:21.099,8.542512,-3.064578,2.1452048
2014-03-09 13:07:21.119,8.695741,-3.217807,1.685518
2014-03-09 13:07:21.139,9.346964,-2.9879637,1.0726024
2014-03-09 13:07:21.153,9.5385,-2.2601264,0.7278373
2014-03-09 13:07:21.170,9.615114,-1.4556746,0.4213795
2014-03-09 13:07:21.181,9.461885,-1.0342951,0.076614454
2014-03-09 13:07:21.200,9.155427,-0.9576807,-0.076614454
2014-03-09 13:07:21.220,9.270349,-1.1109096,-0.076614454
2014-03-09 13:07:21.230,9.921572,-0.9576807,0.038307227
2014-03-09 13:07:21.250,9.768343,-0.91937345,0.076614454
2014-03-09 13:07:21.261,9.155427,-0.8810662,0.30645782
2014-03-09 13:07:21.279,9.615114,-0.80445176,0.15322891
2014-03-09 13:07:21.291,10.151415,-0.91937345,0.0
2014-03-09 13:07:21.310,10.0748005,-1.1875241,0.038307227
2014-03-09 13:07:21.330,9.11712,-1.7621324,0.076614454
2014-03-09 13:07:21.342,9.040505,-2.2601264,0.19153613
2014-03-09 13:07:21.360,9.576807,-2.4516625,0.34476504
2014-03-09 13:07:21.370,9.461885,-2.4899697,0.4213795
2014-03-09 13:07:21.392,9.078813,-3.0262709,3.2944214
2014-03-09 13:07:21.410,9.155427,-4.7884035,2.183512
2014-03-09 13:07:21.423,9.653421,-2.2601264,0.34476504
2014-03-09 13:07:21.440,10.036493,-0.8810662,1.0726024
2014-03-09 13:07:21.450,9.883265,0.2681506,1.5705963
2014-03-09 13:07:21.470,8.848969,0.842759,0.7661445
2014-03-09 13:07:21.491,7.6614456,0.038307227,-1.2641385
2014-03-09 13:07:21.502,7.5082164,-2.030283,-3.2561142
2014-03-09 13:07:21.520,7.73806,-1.8387469,-1.4556746
2014-03-09 13:07:21.530,8.274361,-1.9536686,-0.4213795
2014-03-09 13:07:21.550,9.232041,-2.030283,-0.49799395
2014-03-09 13:07:21.561,9.959879,-1.9536686,-0.38307226
2014-03-09 13:07:21.579,10.113108,-1.8770541,-0.15322891
2014-03-09 13:07:21.600,9.80665,-1.8770541,0.22984336
2014-03-09 13:07:21.610,9.691729,-1.685518,0.61291564
2014-03-09 13:07:21.630,9.423578,-1.6472107,0.6895301
2014-03-09 13:07:21.642,9.80665,-1.6089035,0.61291564
2014-03-09 13:07:21.661,9.959879,-1.7238252,0.4213795
2014-03-09 13:07:21.680,9.883265,-1.8004397,0.4213795
2014-03-09 13:07:21.691,9.653421,-1.9153614,0.45968673
2014-03-09 13:07:21.710,9.80665,-1.8770541,0.38307226
2014-03-09 13:07:21.734,9.883265,-1.7621324,0.30645782
2014-03-09 13:07:21.755,9.959879,-1.7238252,0.15322891
2014-03-09 13:07:21.756,9.998186,-1.7238252,0.0
2014-03-09 13:07:21.769,9.998186,-1.685518,0.038307227
2014-03-09 13:07:21.789,10.228029,-1.6089035,0.076614454
2014-03-09 13:07:21.799,9.730036,-1.4173675,0.076614454
2014-03-09 13:07:21.819,9.423578,-1.0342951,0.11492168
2014-03-09 13:07:21.829,9.500193,-0.7278373,0.076614454
2014-03-09 13:07:21.849,9.423578,-0.45968673,0.038307227
2014-03-09 13:07:21.869,9.385271,-0.4213795,0.0
2014-03-09 13:07:21.879,9.5385,-0.45968673,-0.038307227
2014-03-09 13:07:21.900,9.653421,-0.7278373,-0.15322891
2014-03-09 13:07:21.909,9.691729,-0.9576807,-0.2681506
2014-03-09 13:07:21.934,9.653421,-1.0342951,-0.2681506
2014-03-09 13:07:21.945,9.193734,-1.0342951,-0.45968673
2014-03-09 13:07:21.959,8.810662,-0.9576807,-0.5746084
2014-03-09 13:07:21.978,8.925584,-0.8810662,-0.5746084
2014-03-09 13:07:21.990,9.193734,-0.80445176,-0.6512229
2014-03-09 13:07:22.009,9.308656,-0.8810662,-0.6895301
2014-03-09 13:07:22.018,9.308656,-1.0342951,-0.7278373
2014-03-09 13:07:22.039,9.500193,-1.1875241,-0.6895301
2014-03-09 13:07:22.053,9.308656,-1.3024458,-0.6512229
2014-03-09 13:07:22.070,9.040505,-1.532289,-0.6512229
2014-03-09 13:07:22.091,9.193734,-1.685518,-0.49799395
2014-03-09 13:07:22.102,9.385271,-1.8770541,-0.45968673
2014-03-09 13:07:22.118,9.346964,-2.0685902,-0.4213795
2014-03-09 13:07:22.139,9.308656,-2.030283,-0.34476504
2014-03-09 13:07:22.149,9.308656,-2.030283,-0.2681506
2014-03-09 13:07:22.169,9.576807,-1.8387469,-0.11492168
2014-03-09 13:07:22.178,9.308656,-1.685518,-0.22984336
2014-03-09 13:07:22.199,9.11712,-1.685518,-0.15322891
2014-03-09 13:07:22.209,9.040505,-1.7621324,-0.076614454
2014-03-09 13:07:22.229,9.270349,-1.8387469,0.038307227
2014-03-09 13:07:22.252,9.730036,-1.8387469,0.11492168
2014-03-09 13:07:22.263,9.730036,-1.7621324,-0.038307227
2014-03-09 13:07:22.279,9.461885,-1.685518,-0.15322891
2014-03-09 13:07:22.302,9.193734,-1.6089035,-0.19153613
2014-03-09 13:07:22.320,9.346964,-1.532289,-0.2681506
2014-03-09 13:07:22.327,9.576807,-1.6089035,-0.34476504
2014-03-09 13:07:22.342,9.653421,-1.8387469,-0.4213795
2014-03-09 13:07:22.352,9.385271,-1.9919758,-0.4213795
2014-03-09 13:07:22.369,9.308656,-2.030283,-0.49799395
2014-03-09 13:07:22.390,9.040505,-2.030283,-0.5746084
2014-03-09 13:07:22.399,8.810662,-2.030283,-0.49799395
2014-03-09 13:07:22.419,9.078813,-2.030283,-0.45968673
2014-03-09 13:07:22.439,9.385271,-1.9919758,-0.4213795
2014-03-09 13:07:22.449,8.810662,-1.9919758,-0.30645782
2014-03-09 13:07:22.469,8.6574335,-2.030283,-0.15322891
2014-03-09 13:07:22.478,8.963891,-2.030283,0.038307227
2014-03-09 13:07:22.499,9.346964,-2.1452048,0.11492168
2014-03-09 13:07:22.519,9.461885,-2.183512,0.0
2014-03-09 13:07:22.529,9.155427,-2.2218192,-0.15322891
2014-03-09 13:07:22.549,9.078813,-2.336741,-0.22984336
2014-03-09 13:07:22.559,9.11712,-2.1452048,-0.22984336
2014-03-09 13:07:22.578,9.11712,-1.7621324,-0.19153613
2014-03-09 13:07:22.590,9.385271,-1.4173675,-0.19153613
2014-03-09 13:07:22.609,9.193734,-1.2641385,-0.19153613
2014-03-09 13:07:22.629,9.11712,-1.2258313,-0.15322891
2014-03-09 13:07:22.639,9.346964,-1.1875241,-0.11492168
2014-03-09 13:07:22.661,9.730036,-1.3790601,-0.19153613
2014-03-09 13:07:22.670,9.844957,-1.6472107,-0.22984336
2014-03-09 13:07:22.691,9.423578,-1.685518,-0.19153613
2014-03-09 13:07:22.710,9.270349,-1.6472107,-0.19153613
2014-03-09 13:07:22.722,9.615114,-1.7238252,-0.2681506
2014-03-09 13:07:22.741,9.078813,-2.0685902,-0.30645782
2014-03-09 13:07:22.750,8.0445175,-2.2601264,0.038307227
2014-03-09 13:07:22.770,8.963891,-2.3750482,0.038307227
2014-03-09 13:07:22.791,9.615114,-2.4899697,0.11492168
2014-03-09 13:07:22.802,9.883265,-2.7581203,0.4213795
2014-03-09 13:07:22.819,9.11712,-2.7964275,0.6512229
2014-03-09 13:07:22.828,8.810662,-2.4516625,0.6895301
2014-03-09 13:07:22.849,8.963891,-1.9919758,0.49799395
2014-03-09 13:07:22.859,9.308656,-1.7621324,0.38307226
2014-03-09 13:07:22.879,9.346964,-1.7621324,0.22984336
2014-03-09 13:07:22.899,9.040505,-1.8004397,0.038307227
2014-03-09 13:07:22.909,9.002198,-1.9153614,-0.2681506
2014-03-09 13:07:22.929,9.155427,-2.030283,-0.11492168
2014-03-09 13:07:22.943,9.461885,-1.8770541,-0.11492168
2014-03-09 13:07:22.960,9.500193,-1.8004397,-0.15322891
2014-03-09 13:07:22.975,9.155427,-1.8387469,0.0
2014-03-09 13:07:22.991,8.159439,-1.9536686,0.076614454
2014-03-09 13:07:23.002,7.699753,-2.030283,0.34476504
2014-03-09 13:07:23.019,8.389283,-2.183512,0.49799395
2014-03-09 13:07:23.039,9.500193,-2.336741,0.6512229
2014-03-09 13:07:23.049,10.266336,-2.566584,0.7278373
2014-03-09 13:07:23.069,10.151415,-2.9113493,0.842759
2014-03-09 13:07:23.094,9.5385,-2.9879637,0.7661445
2014-03-09 13:07:23.102,9.193734,-2.834735,0.7278373
2014-03-09 13:07:23.119,9.155427,-2.4133554,0.6512229
2014-03-09 13:07:23.130,8.734048,-2.183512,0.38307226
2014-03-09 13:07:23.150,8.312668,-2.030283,0.2681506
2014-03-09 13:07:23.170,7.929596,-1.9153614,0.2681506
2014-03-09 13:07:23.181,8.619126,-1.9153614,0.30645782
2014-03-09 13:07:23.201,9.883265,-2.183512,0.19153613
2014-03-09 13:07:23.209,10.151415,-2.528277,0.30645782
2014-03-09 13:07:23.229,10.113108,-2.336741,0.30645782
2014-03-09 13:07:23.239,9.959879,-1.685518,-0.11492168
2014-03-09 13:07:23.258,9.80665,-1.0342951,-0.2681506
2014-03-09 13:07:23.278,9.615114,-0.91937345,-0.4213795
2014-03-09 13:07:23.289,9.615114,-1.0726024,-0.5363012
2014-03-09 13:07:23.309,9.730036,-1.1492168,-0.5746084
2014-03-09 13:07:23.319,10.036493,-1.2258313,-0.49799395
2014-03-09 13:07:23.339,10.189722,-1.5705963,-0.6895301
2014-03-09 13:07:23.353,10.036493,-1.7621324,-0.45968673
2014-03-09 13:07:23.370,9.730036,-1.7621324,-0.38307226
2014-03-09 13:07:23.391,9.615114,-1.4939818,-0.38307226
2014-03-09 13:07:23.401,10.036493,-1.340753,0.0
2014-03-09 13:07:23.420,10.266336,-1.340753,-0.038307227
2014-03-09 13:07:23.430,9.883265,-1.3790601,0.038307227
2014-03-09 13:07:23.450,9.002198,-1.8770541,0.22984336
2014-03-09 13:07:23.470,8.465898,-2.528277,0.30645782
2014-03-09 13:07:23.481,8.887277,-3.217807,-0.11492168
2014-03-09 13:07:23.500,9.270349,-4.0222588,0.076614454
2014-03-09 13:07:23.530,8.772355,-4.2904096,0.5746084
2014-03-09 13:07:23.567,8.00621,-4.367024,0.91937345
2014-03-09 13:07:23.602,8.465898,-4.6351743,0.30645782
2014-03-09 13:07:23.620,9.385271,-4.175488,-0.34476504
2014-03-09 13:07:23.634,9.500193,-3.715801,-0.45968673
2014-03-09 13:07:23.635,9.078813,-3.86903,-0.842759
2014-03-09 13:07:23.644,8.236053,-3.86903,-0.8810662
2014-03-09 13:07:23.650,7.776367,-5.056554,-1.3790601
2014-03-09 13:07:23.654,7.431602,-6.167464,-3.217807
2014-03-09 13:07:23.659,7.0102224,-6.895301,-4.55856
2014-03-09 13:07:23.669,6.6654577,-6.703765,-4.5202527
2014-03-09 13:07:23.689,6.090849,-5.631162,-3.9456444
2014-03-09 13:07:23.699,5.746084,-4.367024,-3.5625722
2014-03-09 13:07:23.718,6.5122285,-3.86903,-3.1794999
2014-03-09 13:07:23.739,6.6654577,-3.6008794,-3.1028855
2014-03-09 13:07:23.750,6.397307,-3.5242648,-3.217807
2014-03-09 13:07:23.769,6.205771,-3.7924154,-3.2944214
2014-03-09 13:07:23.779,6.244078,-3.9073372,-3.4476504
2014-03-09 13:07:23.803,6.167464,-3.6008794,-3.9456444
2014-03-09 13:07:23.819,5.93762,-3.8307228,-4.098873
2014-03-09 13:07:23.830,5.707777,-4.098873,-3.9073372
2014-03-09 13:07:23.850,5.8226986,-4.405331,-3.7541082
2014-03-09 13:07:23.861,6.090849,-4.673482,-3.6774938
2014-03-09 13:07:23.879,5.93762,-4.7500963,-3.3327289
2014-03-09 13:07:23.891,5.8226986,-4.8267107,-3.2944214
2014-03-09 13:07:23.911,6.129156,-5.2863975,-3.9456444
2014-03-09 13:07:23.930,6.3589997,-6.5505357,-4.2904096
2014-03-09 13:07:23.941,6.9719152,-7.469909,-4.6351743
2014-03-09 13:07:23.959,7.929596,-7.240066,-5.2863975
2014-03-09 13:07:23.970,8.00621,-6.588843,-4.4436383
2014-03-09 13:07:23.991,7.5082164,-5.66947,-2.6431987
2014-03-09 13:07:24.011,9.768343,-5.861006,-4.2904096
2014-03-09 13:07:24.021,19.6133,0.22984336,-17.00841
2014-03-09 13:07:24.040,9.193734,-5.056554,9.5385
2014-03-09 13:07:24.050,6.6271505,-3.2944214,3.9456444
2014-03-09 13:07:24.070,8.197746,0.34476504,-0.45968673
2014-03-09 13:07:24.091,7.240066,1.340753,-0.61291564
2014-03-09 13:07:24.106,9.040505,1.8004397,-2.0685902
2014-03-09 13:07:24.119,10.726024,1.9919758,2.7964275
2014-03-09 13:07:24.130,12.181698,4.4819455,0.91937345
2014-03-09 13:07:24.150,11.377247,5.861006,0.34476504
2014-03-09 13:07:24.160,9.500193,6.742072,-0.91937345
2014-03-09 13:07:24.179,8.542512,5.592855,-0.6895301
2014-03-09 13:07:24.210,9.040505,2.4133554,-0.15322891
2014-03-09 13:07:24.212,9.576807,0.8810662,0.4213795
2014-03-09 13:07:24.236,9.078813,0.6512229,0.0
2014-03-09 13:07:24.256,8.236053,0.80445176,-0.22984336
2014-03-09 13:07:24.267,7.6231384,0.61291564,0.0
2014-03-09 13:07:24.282,7.776367,0.30645782,-0.22984336
2014-03-09 13:07:24.289,8.082825,0.4213795,-0.45968673
2014-03-09 13:07:24.309,8.350976,0.6895301,-0.22984336
2014-03-09 13:07:24.323,8.465898,0.842759,-0.49799395
2014-03-09 13:07:24.339,7.6231384,1.2258313,-0.7278373
2014-03-09 13:07:24.349,6.703765,1.9536686,-0.6895301
2014-03-09 13:07:24.373,6.397307,2.183512,-0.22984336
2014-03-09 13:07:24.391,6.9719152,1.7238252,-0.5746084
2014-03-09 13:07:24.401,7.8146744,2.1452048,-0.9959879
2014-03-09 13:07:24.420,9.308656,2.566584,-1.2641385
2014-03-09 13:07:24.430,10.304645,2.3750482,-0.6895301
2014-03-09 13:07:24.450,10.0748005,1.8387469,-1.0342951
2014-03-09 13:07:24.470,8.312668,1.9919758,-0.91937345
2014-03-09 13:07:24.481,6.9719152,1.7238252,-0.80445176
2014-03-09 13:07:24.501,6.703765,1.2641385,-1.0726024
2014-03-09 13:07:24.510,7.393295,1.3024458,-1.2258313
2014-03-09 13:07:24.530,8.274361,1.340753,-1.1492168
2014-03-09 13:07:24.543,8.772355,0.9576807,-0.19153613
2014-03-09 13:07:24.559,8.542512,0.7661445,-0.2681506
2014-03-09 13:07:24.580,7.8912888,0.6512229,-0.49799395
2014-03-09 13:07:24.591,7.0485296,0.4213795,-0.9959879
2014-03-09 13:07:24.610,6.8569937,0.2681506,-1.1875241
2014-03-09 13:07:24.628,7.201759,0.19153613,-1.4556746
2014-03-09 13:07:24.641,7.1634517,-0.11492168,-1.340753
2014-03-09 13:07:24.660,6.6654577,-0.6512229,-1.3790601
2014-03-09 13:07:24.670,6.703765,-0.91937345,-2.1452048
2014-03-09 13:07:24.691,6.435614,-0.7661445,-2.2601264
2014-03-09 13:07:24.703,5.899313,0.0,-2.3750482
2014-03-09 13:07:24.719,6.0525417,1.1875241,-3.9073372
2014-03-09 13:07:24.730,6.703765,1.3790601,-4.1371803
2014-03-09 13:07:24.750,8.197746,1.5705963,-4.060566
2014-03-09 13:07:24.781,10.342952,2.183512,-4.711789
2014-03-09 13:07:24.794,11.453861,2.2601264,-1.9536686
2014-03-09 13:07:24.803,13.101071,3.8307228,-2.528277
2014-03-09 13:07:24.809,14.326903,5.133168,-3.6774938
2014-03-09 13:07:24.829,13.905523,6.8186865,-2.4133554
2014-03-09 13:07:24.849,15.437813,5.0182467,-3.9839516
2014-03-09 13:07:24.858,14.365211,3.1794999,-2.6048915
2014-03-09 13:07:24.878,13.062764,2.4133554,-3.4859576
2014-03-09 13:07:24.890,15.284584,3.715801,-2.336741
2014-03-09 13:07:24.916,16.357185,-1.1875241,-2.7964275
2014-03-09 13:07:24.930,15.20797,-0.842759,-3.5242648
2014-03-09 13:07:24.941,8.542512,2.1452048,3.4476504
2014-03-09 13:07:24.959,4.596867,-1.1109096,5.746084
2014-03-09 13:07:24.970,5.209783,-4.2521024,6.8186865
2014-03-09 13:07:24.991,6.167464,-7.6614456,12.449849
2014-03-09 13:07:25.002,7.240066,-9.346964,16.74026
2014-03-09 13:07:25.019,7.8912888,-7.3549876,13.101071
2014-03-09 13:07:25.040,8.082825,-5.5162406,8.619126
2014-03-09 13:07:25.050,8.274361,-4.865018,6.2823853
2014-03-09 13:07:25.070,9.002198,-4.2904096,6.090849
2014-03-09 13:07:25.081,9.576807,-4.1371803,3.86903
2014-03-09 13:07:25.101,9.078813,-4.7500963,3.0262709
2014-03-09 13:07:25.119,8.848969,-5.93762,3.0262709
2014-03-09 13:07:25.130,8.963891,-6.167464,2.1452048
2014-03-09 13:07:25.150,7.967903,-5.631162,2.1068976
2014-03-09 13:07:25.160,5.9759274,-4.865018,3.5242648
2014-03-09 13:07:25.179,4.405331,-3.715801,4.060566
2014-03-09 13:07:25.191,4.4436383,-2.4133554,2.7581203
2014-03-09 13:07:25.210,4.6351743,-1.9536686,1.6472107
2014-03-09 13:07:25.230,3.715801,-1.8387469,1.4556746
2014-03-09 13:07:25.241,2.7581203,-1.685518,1.0342951
2014-03-09 13:07:25.259,1.9536686,-1.1492168,0.34476504
2014-03-09 13:07:25.270,0.2681506,-1.1875241,-1.1875241
2014-03-09 13:07:25.291,-0.7278373,-1.2641385,-3.6774938
2014-03-09 13:07:25.310,-0.4213795,-0.7278373,-4.2904096
2014-03-09 13:07:25.326,1.532289,0.5363012,-3.3327289
2014-03-09 13:07:25.340,3.9456444,0.80445176,-3.1411927
2014-03-09 13:07:25.350,4.55856,-0.5363012,-2.2984335
2014-03-09 13:07:25.370,6.5505357,-2.3750482,-1.8770541
2014-03-09 13:07:25.381,8.925584,-4.367024,-2.834735
2014-03-09 13:07:25.400,10.6877165,-7.5465236,-4.673482
2014-03-09 13:07:25.420,11.530476,-8.772355,-6.3206925
2014-03-09 13:07:25.430,9.691729,-9.308656,-6.8569937
2014-03-09 13:07:25.451,6.588843,-10.994174,-8.0445175
2014-03-09 13:07:25.458,6.244078,-9.80665,-9.385271
2014-03-09 13:07:25.478,9.576807,-8.734048,-10.419566
2014-03-09 13:07:25.498,19.34515,-14.326903,-15.1696615
2014-03-09 13:07:25.508,18.310854,-12.641385,-2.1068976
2014-03-09 13:07:25.529,-2.6048915,-10.534488,1.685518
2014-03-09 13:07:25.539,-1.9919758,-11.262324,-4.2904096
2014-03-09 13:07:25.559,4.903325,-4.6351743,-0.61291564
2014-03-09 13:07:25.579,6.8569937,-4.405331,1.685518
2014-03-09 13:07:25.593,8.772355,-5.2863975,7.086837
2014-03-09 13:07:25.610,10.113108,-7.0102224,10.6877165
2014-03-09 13:07:25.621,5.8226986,-5.8226986,7.5082164
2014-03-09 13:07:25.641,6.3206925,-3.6008794,7.699753
2014-03-09 13:07:25.650,7.3549876,-1.8770541,8.350976
2014-03-09 13:07:25.670,7.0485296,-1.5705963,7.3166804
2014-03-09 13:07:25.691,7.5848308,-0.842759,6.3206925
2014-03-09 13:07:25.702,8.580819,0.11492168,4.1371803
2014-03-09 13:07:25.718,8.350976,0.30645782,2.7581203
2014-03-09 13:07:25.729,6.895301,0.19153613,2.719813
2014-03-09 13:07:25.749,5.4779334,0.15322891,3.6391866
2014-03-09 13:07:25.769,5.094861,0.6512229,4.865018
2014-03-09 13:07:25.778,5.631162,1.3024458,3.7924154
2014-03-09 13:07:25.799,6.397307,1.9919758,2.2601264
2014-03-09 13:07:25.809,6.3589997,2.2218192,2.183512
2014-03-09 13:07:25.829,6.090849,1.532289,2.6431987
2014-03-09 13:07:25.844,6.090849,0.7661445,2.4516625
2014-03-09 13:07:25.861,5.93762,0.49799395,2.4899697
2014-03-09 13:07:25.880,6.244078,0.5746084,2.6048915
2014-03-09 13:07:25.892,6.703765,0.5363012,2.1452048
2014-03-09 13:07:25.910,7.086837,-0.19153613,1.8004397
2014-03-09 13:07:25.918,7.8146744,-0.7278373,1.9536686
2014-03-09 13:07:25.939,8.963891,-0.49799395,1.5705963
2014-03-09 13:07:25.958,8.619126,-0.6512229,1.2258313
2014-03-09 13:07:25.969,7.6614456,-1.1109096,0.80445176
2014-03-09 13:07:25.993,7.1634517,-0.9576807,0.6895301
2014-03-09 13:07:25.999,6.3589997,-0.7278373,0.9576807
2014-03-09 13:07:26.019,8.236053,-1.0726024,0.15322891
2014-03-09 13:07:26.029,10.228029,-0.34476504,-0.49799395
2014-03-09 13:07:26.050,9.921572,-0.19153613,0.30645782
2014-03-09 13:07:26.070,7.929596,-0.6895301,0.842759
2014-03-09 13:07:26.080,7.8529816,-0.842759,-1.1109096
2014-03-09 13:07:26.100,7.5082164,-0.19153613,-1.4556746
2014-03-09 13:07:26.110,6.588843,0.49799395,-1.4939818
2014-03-09 13:07:26.130,7.1634517,1.3790601,-1.8387469
2014-03-09 13:07:26.150,7.3166804,2.1068976,-1.340753
2014-03-09 13:07:26.160,8.274361,1.9153614,-1.4939818
2014-03-09 13:07:26.180,9.730036,1.4556746,-1.9153614
2014-03-09 13:07:26.191,10.036493,1.5705963,-2.4133554
2014-03-09 13:07:26.210,11.33894,2.0685902,-2.834735
2014-03-09 13:07:26.221,12.488156,2.0685902,-1.9536686
2014-03-09 13:07:26.240,14.211981,2.0685902,-1.4556746
2014-03-09 13:07:26.259,16.050728,3.5242648,1.3024458
2014-03-09 13:07:26.270,18.847157,6.5122285,3.715801
2014-03-09 13:07:26.291,19.6133,8.580819,4.6351743
2014-03-09 13:07:26.301,17.046717,5.094861,5.746084
2014-03-09 13:07:26.320,11.300632,5.3247046,10.0748005
2014-03-09 13:07:26.354,8.121132,3.371036,11.377247
2014-03-09 13:07:26.355,10.6877165,2.719813,10.726024
2014-03-09 13:07:26.370,12.794614,5.133168,9.078813
2014-03-09 13:07:26.381,12.488156,1.3024458,12.334928
2014-03-09 13:07:26.399,9.461885,-2.528277,10.994174
2014-03-09 13:07:26.420,6.3589997,-4.6351743,8.963891
2014-03-09 13:07:26.430,6.8569937,-5.7843914,10.342952
2014-03-09 13:07:26.450,8.963891,-2.834735,10.879252
2014-03-09 13:07:26.465,9.615114,1.6472107,7.2783732
2014-03-09 13:07:26.494,9.346964,1.3790601,4.8267107
2014-03-09 13:07:26.495,6.933608,-2.681506,5.3247046
2014-03-09 13:07:26.509,4.865018,-3.9839516,6.0142345
2014-03-09 13:07:26.529,5.4779334,-4.175488,4.903325
2014-03-09 13:07:26.539,7.8146744,-5.171476,4.175488
2014-03-09 13:07:26.558,8.389283,-5.133168,5.66947
2014-03-09 13:07:26.570,6.3589997,-3.9073372,4.405331
2014-03-09 13:07:26.592,3.064578,-3.371036,1.9919758
2014-03-09 13:07:26.609,1.5705963,-4.3287168,-0.15322891
2014-03-09 13:07:26.619,2.6431987,-3.6008794,-1.8770541
2014-03-09 13:07:26.639,4.6351743,-1.532289,-2.1068976
2014-03-09 13:07:26.652,5.363012,-0.6512229,-1.5705963
2014-03-09 13:07:26.670,4.673482,-1.3024458,-1.6472107
2014-03-09 13:07:26.680,4.2904096,-2.834735,-1.8387469
2014-03-09 13:07:26.725,5.707777,-3.6008794,-0.80445176
2014-03-09 13:07:26.759,8.772355,-3.4476504,0.7278373
2014-03-09 13:07:26.759,5.93762,-3.4859576,0.11492168
2014-03-09 13:07:26.769,0.2681506,-4.2521024,-3.1411927
2014-03-09 13:07:26.774,0.6895301,-4.2521024,-4.1371803
2014-03-09 13:07:26.790,2.9496565,-2.7581203,-3.5625722
2014-03-09 13:07:26.799,3.86903,-2.030283,-3.1411927
2014-03-09 13:07:26.809,10.189722,-0.6895301,-4.3287168
2014-03-09 13:07:26.828,19.6133,3.6008794,-1.5705963
2014-03-09 13:07:26.839,9.040505,-3.8307228,5.7843914
2014-03-09 13:07:26.858,5.0182467,-0.7661445,6.8186865
2014-03-09 13:07:26.879,6.3589997,-1.7621324,9.346964
2014-03-09 13:07:26.890,7.699753,-3.217807,8.465898
2014-03-09 13:07:26.909,14.5567465,-5.554548,7.5465236
2014-03-09 13:07:26.919,19.6133,-4.2904096,9.768343
2014-03-09 13:07:26.943,18.157625,-0.038307227,11.836933
2014-03-09 13:07:26.950,12.909535,1.2258313,11.224017
2014-03-09 13:07:26.975,9.80665,1.4556746,9.078813
2014-03-09 13:07:26.991,7.3549876,0.842759,6.6271505
2014-03-09 13:07:27.001,6.129156,0.7278373,4.4819455
2014-03-09 13:07:27.019,5.2863975,0.9959879,3.4093432
2014-03-09 13:07:27.028,5.056554,0.6512229,2.873042
2014-03-09 13:07:27.049,5.209783,0.8810662,2.1452048
2014-03-09 13:07:27.069,6.3206925,1.1492168,1.2258313
2014-03-09 13:07:27.080,7.240066,1.6472107,0.7661445
2014-03-09 13:07:27.103,5.93762,2.7581203,0.076614454
2014-03-09 13:07:27.110,3.3327289,1.0342951,0.9576807
2014-03-09 13:07:27.130,1.9919758,-0.15322891,1.5705963
2014-03-09 13:07:27.142,1.4939818,-0.80445176,2.2218192
2014-03-09 13:07:27.159,2.2218192,-0.9576807,3.371036
2014-03-09 13:07:27.179,3.6774938,-0.22984336,3.9456444
2014-03-09 13:07:27.191,6.9719152,0.19153613,3.4476504
2014-03-09 13:07:27.210,12.105083,0.15322891,4.9799395
2014-03-09 13:07:27.220,12.832921,-1.1875241,6.167464
2014-03-09 13:07:27.244,8.236053,-1.0726024,6.6654577
2014-03-09 13:07:27.260,3.9839516,0.842759,4.213795
2014-03-09 13:07:27.270,4.711789,2.4133554,-0.38307226
2014-03-09 13:07:27.291,10.457873,3.8307228,-0.30645782
2014-03-09 13:07:27.299,12.29662,4.367024,1.0726024
2014-03-09 13:07:27.320,5.707777,3.4093432,3.9456444
2014-03-09 13:07:27.330,1.7238252,4.673482,5.171476
2014-03-09 13:07:27.351,7.73806,3.371036,1.8387469
2014-03-09 13:07:27.370,13.790602,-2.183512,5.401319
2014-03-09 13:07:27.379,13.024457,-6.0142345,6.742072
2014-03-09 13:07:27.399,12.373235,-3.9456444,7.431602
2014-03-09 13:07:27.410,15.437813,-2.6431987,8.810662
2014-03-09 13:07:27.430,17.583017,-2.030283,10.6877165
2014-03-09 13:07:27.451,19.115307,1.3790601,11.33894
2014-03-09 13:07:27.459,17.621325,1.0342951,8.695741
2014-03-09 13:07:27.492,10.496181,-0.38307226,6.4739213
2014-03-09 13:07:27.495,4.3287168,0.4213795,2.873042
2014-03-09 13:07:27.509,9.768343,2.2218192,-1.7621324
2014-03-09 13:07:27.519,7.431602,0.22984336,-3.2561142
2014-03-09 13:07:27.539,0.9576807,0.38307226,-3.371036
2014-03-09 13:07:27.558,1.0726024,1.6089035,-4.9799395
2014-03-09 13:07:27.569,3.1794999,1.6472107,-4.596867
2014-03-09 13:07:27.590,6.2823853,0.91937345,-2.681506
2014-03-09 13:07:27.598,8.465898,-0.30645782,0.22984336
2014-03-09 13:07:27.619,10.955867,-2.0685902,2.9496565
2014-03-09 13:07:27.639,15.131354,-4.3287168,5.899313
2014-03-09 13:07:27.649,14.595054,-7.6614456,8.963891
2014-03-09 13:07:27.669,8.082825,-7.8912888,10.91756
2014-03-09 13:07:27.678,7.699753,-6.3589997,7.8912888
2014-03-09 13:07:27.699,7.469909,-4.098873,8.772355
2014-03-09 13:07:27.719,2.873042,-0.8810662,9.270349
2014-03-09 13:07:27.730,2.183512,1.2258313,3.217807
2014-03-09 13:07:27.746,10.036493,1.9153614,-7.8912888
2014-03-09 13:07:27.759,11.18571,-0.038307227,1.340753
2014-03-09 13:07:27.780,6.8569937,-1.6472107,4.5202527
2014-03-09 13:07:27.791,6.2823853,-1.3024458,4.367024
2014-03-09 13:07:27.809,6.7803793,-1.8770541,5.899313
2014-03-09 13:07:27.829,5.133168,-2.9113493,6.129156
2014-03-09 13:07:27.839,4.596867,-4.213795,5.0182467
2014-03-09 13:07:27.858,5.0182467,-3.6391866,4.596867
2014-03-09 13:07:27.869,5.4779334,-0.842759,4.9799395
2014-03-09 13:07:27.890,4.8267107,-0.22984336,5.554548
2014-03-09 13:07:27.909,4.7500963,-1.3024458,5.8226986
2014-03-09 13:07:27.919,3.5625722,-2.2601264,6.4739213
2014-03-09 13:07:27.943,3.715801,-4.405331,10.113108
2014-03-09 13:07:27.951,3.8307228,-3.7541082,7.929596
2014-03-09 13:07:27.970,4.6351743,-2.834735,8.810662
2014-03-09 13:07:27.981,5.209783,-2.834735,11.377247
2014-03-09 13:07:28.001,5.171476,-4.0222588,12.105083
2014-03-09 13:07:28.019,5.93762,-6.0142345,13.828909
2014-03-09 13:07:28.029,6.8186865,-6.167464,13.982138
2014-03-09 13:07:28.049,10.419566,-2.6431987,7.6231384
2014-03-09 13:07:28.058,12.488156,-1.3024458,8.963891
2014-03-09 13:07:28.078,11.262324,0.9959879,5.0182467
2014-03-09 13:07:28.099,9.11712,0.2681506,5.7843914
2014-03-09 13:07:28.109,8.350976,-0.4213795,7.1634517
2014-03-09 13:07:28.130,7.5465236,-2.873042,14.5567465
2014-03-09 13:07:28.142,7.699753,-4.5202527,15.591042
2014-03-09 13:07:28.159,9.959879,-1.8387469,10.649409
2014-03-09 13:07:28.170,12.871228,0.19153613,10.496181
2014-03-09 13:07:28.191,13.177686,-0.7278373,11.109096
2014-03-09 13:07:28.210,10.572795,-2.4899697,10.304645
2014-03-09 13:07:28.219,9.730036,-2.4133554,10.419566
2014-03-09 13:07:28.240,9.5385,-2.834735,12.756307
2014-03-09 13:07:28.250,9.921572,-2.6048915,11.530476
2014-03-09 13:07:28.270,10.611102,-2.4899697,11.453861
2014-03-09 13:07:28.291,11.109096,-2.4516625,10.151415
2014-03-09 13:07:28.300,10.457873,-1.8387469,6.588843
2014-03-09 13:07:28.319,10.189722,-1.4556746,8.312668
2014-03-09 13:07:28.331,7.5848308,-2.4133554,7.469909
2014-03-09 13:07:28.359,5.554548,-3.3327289,7.3166804
2014-03-09 13:07:28.379,7.73806,-4.405331,15.1696615
2014-03-09 13:07:28.389,8.312668,-3.371036,19.498379
2014-03-09 13:07:28.401,1.1875241,0.7661445,13.330915
2014-03-09 13:07:28.409,5.592855,-0.45968673,19.000385
2014-03-09 13:07:28.429,4.098873,-4.213795,17.00841
2014-03-09 13:07:28.439,3.7541082,-7.0102224,17.161638
2014-03-09 13:07:28.459,3.7541082,-5.66947,19.421764
2014-03-09 13:07:28.479,1.685518,-3.6391866,19.6133
2014-03-09 13:07:28.495,-0.6512229,-4.0222588,18.617311
2014-03-09 13:07:28.512,-2.183512,-6.2823853,18.464083
2014-03-09 13:07:28.521,-2.183512,-6.5505357,16.816874
2014-03-09 13:07:28.541,-1.8387469,-6.0142345,11.032481
2014-03-09 13:07:28.556,2.873042,-6.4739213,13.062764
2014-03-09 13:07:28.570,4.1371803,-4.903325,9.730036
2014-03-09 13:07:28.590,1.9919758,-3.2944214,3.7541082
2014-03-09 13:07:28.599,2.719813,-3.4859576,2.6048915
2014-03-09 13:07:28.619,2.1068976,-2.9113493,3.1028855
2014-03-09 13:07:28.630,1.532289,-1.685518,4.367024
2014-03-09 13:07:28.649,1.340753,-0.5363012,5.8226986
2014-03-09 13:07:28.669,0.0,1.1109096,7.6231384
2014-03-09 13:07:28.678,-1.9919758,4.596867,12.143391
2014-03-09 13:07:28.699,-5.554548,4.6351743,16.778566
2014-03-09 13:07:28.709,-7.1634517,2.1068976,17.199945
2014-03-09 13:07:28.729,-9.078813,1.1492168,11.951855
2014-03-09 13:07:28.750,-16.510414,0.2681506,6.244078
2014-03-09 13:07:28.759,-18.004396,3.064578,2.2601264
2014-03-09 13:07:28.779,-15.1696615,12.488156,0.5746084
2014-03-09 13:07:28.791,3.3327289,10.228029,-15.20797
2014-03-09 13:07:28.812,19.6133,1.5705963,-11.87524
2014-03-09 13:07:28.831,19.498379,-4.55856,-1.6472107
2014-03-09 13:07:28.848,9.576807,0.61291564,-3.064578
2014-03-09 13:07:28.858,0.15322891,-0.61291564,1.340753
2014-03-09 13:07:28.870,0.7278373,-2.4516625,2.6048915
2014-03-09 13:07:28.892,2.2218192,-1.3790601,-0.8810662
2014-03-09 13:07:28.899,2.6431987,-0.8810662,-2.183512
2014-03-09 13:07:28.918,1.685518,-0.9959879,-1.9153614
2014-03-09 13:07:28.939,1.2258313,-1.4939818,-0.19153613
2014-03-09 13:07:28.961,0.91937345,-1.9919758,1.9153614
2014-03-09 13:07:28.971,0.8810662,-2.681506,2.9113493
2014-03-09 13:07:28.985,0.7661445,-3.2561142,3.2561142
2014-03-09 13:07:29.000,-0.11492168,-3.6008794,3.371036
2014-03-09 13:07:29.020,-0.11492168,-3.2944214,3.5625722
2014-03-09 13:07:29.030,0.4213795,-3.1028855,2.183512
2014-03-09 13:07:29.050,0.61291564,-2.030283,1.8770541
2014-03-09 13:07:29.061,0.2681506,-0.7278373,1.532289
2014-03-09 13:07:29.081,-0.34476504,0.2681506,1.2641385
2014-03-09 13:07:29.092,-0.6512229,1.2641385,1.4939818
2014-03-09 13:07:29.110,-0.7661445,2.528277,1.5705963
2014-03-09 13:07:29.130,-1.1875241,2.9879637,1.5705963
2014-03-09 13:07:29.142,-1.4939818,3.1794999,1.0342951
2014-03-09 13:07:29.163,-1.8004397,3.1411927,0.8810662
2014-03-09 13:07:29.170,-1.2641385,2.030283,0.6512229
2014-03-09 13:07:29.192,-0.842759,1.0342951,-0.38307226
2014-03-09 13:07:29.210,-0.9576807,1.0342951,-0.61291564
2014-03-09 13:07:29.219,-0.91937345,0.6512229,-0.80445176
2014-03-09 13:07:29.239,-1.4556746,-0.34476504,-0.22984336
2014-03-09 13:07:29.250,-1.7238252,-1.6472107,1.5705963
2014-03-09 13:07:29.269,-1.1492168,-2.3750482,3.2944214
2014-03-09 13:07:29.278,-0.30645782,-3.1411927,5.707777
2014-03-09 13:07:29.299,1.5705963,-3.6391866,7.3549876
2014-03-09 13:07:29.319,5.5162406,-2.3750482,2.719813
2014-03-09 13:07:29.330,6.6271505,-2.2218192,-1.2641385
2014-03-09 13:07:29.354,5.8226986,-0.80445176,-8.312668
2014-03-09 13:07:29.363,11.990162,-0.7661445,-4.55856
2014-03-09 13:07:29.380,19.6133,-6.8186865,8.734048
2014-03-09 13:07:29.400,17.27656,-15.935806,19.6133
2014-03-09 13:07:29.410,-14.326903,-5.439626,13.215993
2014-03-09 13:07:29.430,12.258312,-19.153614,19.6133
2014-03-09 13:07:29.442,6.5505357,-8.887277,8.159439
2014-03-09 13:07:29.460,0.842759,6.090849,10.151415
2014-03-09 13:07:29.470,6.090849,-10.036493,6.933608
2014-03-09 13:07:29.492,17.54471,-1.4939818,-4.55856
2014-03-09 13:07:29.510,19.6133,12.564771,-6.3206925
2014-03-09 13:07:29.522,19.574993,12.641385,-3.6391866
2014-03-09 13:07:29.542,18.157625,9.883265,4.903325
2014-03-09 13:07:29.551,10.840945,4.711789,3.3327289
2014-03-09 13:07:29.569,5.8226986,1.6089035,-0.2681506
2014-03-09 13:07:29.589,0.91937345,2.1452048,-3.0262709
2014-03-09 13:07:29.599,0.7278373,1.6089035,2.3750482
2014-03-09 13:07:29.619,8.504205,-6.6654577,18.579004
2014-03-09 13:07:29.629,6.588843,-10.6877165,19.6133
2014-03-09 13:07:29.653,9.193734,-3.6391866,11.645397
2014-03-09 13:07:29.670,6.5505357,1.4556746,6.3589997
2014-03-09 13:07:29.686,5.3247046,2.6431987,4.9416323
2014-03-09 13:07:29.702,5.592855,-0.11492168,7.240066
2014-03-09 13:07:29.709,4.7884035,-4.7500963,9.232041
2014-03-09 13:07:29.729,7.699753,-7.699753,16.242264
2014-03-09 13:07:29.739,9.232041,-10.266336,19.6133
2014-03-09 13:07:29.775,7.0102224,-10.113108,19.383457
2014-03-09 13:07:29.779,9.385271,-5.631162,14.978126
2014-03-09 13:07:29.793,10.419566,-4.175488,10.994174
2014-03-09 13:07:29.810,8.197746,-2.0685902,9.270349
2014-03-09 13:07:29.820,6.8186865,0.15322891,4.175488
2014-03-09 13:07:29.839,6.129156,0.038307227,3.217807
2014-03-09 13:07:29.859,4.4819455,-3.7541082,15.322891
2014-03-09 13:07:29.869,3.715801,-5.5162406,19.460072
2014-03-09 13:07:29.892,2.528277,-5.401319,17.659632
2014-03-09 13:07:29.899,2.834735,-2.873042,9.461885
2014-03-09 13:07:29.919,4.5202527,-1.7621324,10.994174
2014-03-09 13:07:29.929,4.0222588,-2.2601264,11.18571
2014-03-09 13:07:29.949,2.528277,-1.6089035,8.6574335
2014-03-09 13:07:29.969,3.5625722,-1.685518,8.0445175
2014-03-09 13:07:29.979,5.439626,-1.7238252,7.8529816
2014-03-09 13:07:29.998,5.8226986,-1.1109096,4.0222588
2014-03-09 13:07:30.009,4.711789,-0.5363012,1.2258313
2014-03-09 13:07:30.029,4.213795,-1.0342951,0.076614454
2014-03-09 13:07:30.049,3.6008794,-1.3790601,-0.7278373
2014-03-09 13:07:30.058,3.9073372,-0.9576807,2.2984335
2014-03-09 13:07:30.079,6.3589997,-3.4476504,16.280571
2014-03-09 13:07:30.089,3.9073372,-3.6774938,12.143391
2014-03-09 13:07:30.109,-0.5363012,-3.217807,6.3206925
2014-03-09 13:07:30.118,0.4213795,-4.903325,11.760319
2014-03-09 13:07:30.140,0.61291564,-6.090849,9.576807
2014-03-09 13:07:30.159,0.5363012,-6.7803793,8.236053
2014-03-09 13:07:30.173,0.2681506,-4.6351743,5.2863975
2014-03-09 13:07:30.191,1.4556746,-2.528277,4.367024
2014-03-09 13:07:30.205,2.2601264,-0.842759,3.5242648
2014-03-09 13:07:30.220,2.4516625,-0.45968673,1.9919758
2014-03-09 13:07:30.240,2.873042,-0.038307227,0.38307226
2014-03-09 13:07:30.250,3.715801,0.6895301,0.2681506
2014-03-09 13:07:30.270,4.711789,0.7661445,3.2561142
2014-03-09 13:07:30.281,6.7803793,0.076614454,8.695741
2014-03-09 13:07:30.300,12.411542,-4.903325,16.280571
2014-03-09 13:07:30.310,11.722012,-8.925584,19.6133
2014-03-09 13:07:30.330,3.6391866,-6.588843,16.203957
2014-03-09 13:07:30.350,1.9153614,-5.0182467,11.836933
2014-03-09 13:07:30.361,6.129156,-2.6048915,8.0445175
2014-03-09 13:07:30.402,7.5465236,-0.4213795,2.9113493
2014-03-09 13:07:30.403,10.840945,0.80445176,3.4476504
2014-03-09 13:07:30.415,13.254301,0.80445176,4.3287168
2014-03-09 13:07:30.430,10.228029,0.038307227,2.9496565
2014-03-09 13:07:30.443,6.3589997,0.38307226,1.532289
2014-03-09 13:07:30.458,4.4819455,1.2258313,2.3750482
2014-03-09 13:07:30.469,5.0182467,2.336741,3.9073372
2014-03-09 13:07:30.494,7.5465236,2.9879637,4.596867
2014-03-09 13:07:30.510,9.500193,-1.2258313,4.903325
2014-03-09 13:07:30.522,10.879252,-4.367024,8.772355
2014-03-09 13:07:30.541,17.697939,-6.933608,9.232041
2014-03-09 13:07:30.550,19.6133,-7.967903,7.2783732
2014-03-09 13:07:30.570,13.9438305,-6.397307,7.8529816
2014-03-09 13:07:30.581,9.193734,-5.8226986,6.6271505
2014-03-09 13:07:30.601,9.078813,-3.6391866,3.7541082
2014-03-09 13:07:30.621,7.5082164,1.0726024,-0.7661445
2014-03-09 13:07:30.630,5.2480903,2.1452048,-0.15322891
2014-03-09 13:07:30.650,3.0262709,2.681506,-1.8004397
2014-03-09 13:07:30.663,0.7661445,3.1794999,-2.7964275
2014-03-09 13:07:30.680,-3.2561142,4.175488,0.842759
2014-03-09 13:07:30.692,-4.596867,3.371036,1.2641385
2014-03-09 13:07:30.709,-3.064578,2.2218192,0.61291564
2014-03-09 13:07:30.729,-2.834735,1.9153614,1.2258313
2014-03-09 13:07:30.739,-3.3327289,2.2984335,2.6431987
2014-03-09 13:07:30.759,-3.9073372,1.7238252,3.6391866
2014-03-09 13:07:30.769,-3.3327289,-1.4939818,5.363012
2014-03-09 13:07:30.794,-2.2218192,-3.217807,9.11712
2014-03-09 13:07:30.810,-1.0342951,-3.9839516,10.304645
2014-03-09 13:07:30.822,0.0,-3.86903,8.197746
2014-03-09 13:07:30.842,1.7621324,-2.566584,4.9416323
2014-03-09 13:07:30.849,6.0142345,-0.80445176,2.1068976
2014-03-09 13:07:30.869,19.6133,8.695741,-15.131354
2014-03-09 13:07:30.891,19.6133,9.346964,-13.905523
2014-03-09 13:07:30.899,19.574993,15.1696615,-4.405331
2014-03-09 13:07:30.918,16.893488,9.576807,-0.5746084
2014-03-09 13:07:30.929,8.42759,4.4819455,-2.0685902
2014-03-09 13:07:30.958,2.566584,2.681506,-2.1068976
2014-03-09 13:07:30.972,-0.5363012,2.6048915,-9.193734
2014-03-09 13:07:30.979,-2.2984335,3.217807,-8.274361
2014-03-09 13:07:30.999,-2.528277,2.9113493,-10.036493
2014-03-09 13:07:31.009,1.1109096,1.7621324,-5.746084
2014-03-09 13:07:31.029,5.171476,1.2641385,-2.9879637
2014-03-09 13:07:31.039,6.895301,3.3327289,2.4899697
2014-03-09 13:07:31.062,10.726024,4.367024,2.183512
2014-03-09 13:07:31.080,13.522451,4.7884035,1.4556746
2014-03-09 13:07:31.091,14.326903,4.711789,-0.34476504
2014-03-09 13:07:31.110,11.415554,4.098873,-1.532289
2014-03-09 13:07:31.121,3.4476504,3.5242648,-4.5202527
2014-03-09 13:07:31.140,-1.685518,3.5242648,-5.631162
2014-03-09 13:07:31.159,-3.4859576,3.4093432,-7.0102224
2014-03-09 13:07:31.170,0.7661445,3.371036,-5.2480903
2014-03-09 13:07:31.203,7.5082164,2.6431987,-0.80445176
2014-03-09 13:07:31.213,11.836933,5.171476,0.61291564
2014-03-09 13:07:31.225,7.8529816,3.8307228,0.34476504
2014-03-09 13:07:31.230,3.9839516,2.4899697,-0.11492168
2014-03-09 13:07:31.249,5.66947,0.80445176,-0.80445176
2014-03-09 13:07:31.269,10.955867,2.183512,2.3750482
2014-03-09 13:07:31.278,17.736246,3.9839516,-1.5705963
2014-03-09 13:07:31.298,19.6133,11.683704,-5.8226986
2014-03-09 13:07:31.309,19.6133,14.173674,2.4516625
2014-03-09 13:07:31.329,19.6133,10.649409,7.393295
2014-03-09 13:07:31.349,13.522451,5.707777,7.2783732
2014-03-09 13:07:31.361,-2.4516625,0.5746084,5.9759274
2014-03-09 13:07:31.379,-6.6271505,-1.8387469,4.098873
2014-03-09 13:07:31.391,-7.1251445,-1.2258313,2.834735
2014-03-09 13:07:31.409,-5.861006,2.681506,-3.2561142
2014-03-09 13:07:31.419,-5.9759274,8.925584,-15.667656
2014-03-09 13:07:31.441,-6.435614,12.603078,-18.042704
2014-03-09 13:07:31.458,-4.0222588,8.619126,-7.201759
2014-03-09 13:07:31.469,-1.7238252,2.0685902,-4.213795
2014-03-09 13:07:31.490,1.0342951,-1.7621324,-3.2944214
2014-03-09 13:07:31.498,2.6048915,-1.8387469,-1.340753
2014-03-09 13:07:31.519,3.217807,-1.6472107,0.6895301
2014-03-09 13:07:31.539,3.9073372,-1.9919758,2.030283
2014-03-09 13:07:31.549,5.209783,-1.5705963,3.371036
2014-03-09 13:07:31.569,9.959879,2.3750482,8.00621
2014-03-09 13:07:31.578,19.6133,5.439626,18.579004
2014-03-09 13:07:31.599,19.6133,6.2823853,19.6133
2014-03-09 13:07:31.609,19.6133,9.691729,19.6133
2014-03-09 13:07:31.630,19.6133,2.1068976,19.6133
2014-03-09 13:07:31.650,14.671668,0.842759,15.1696615
2014-03-09 13:07:31.660,7.240066,1.3024458,4.175488
2014-03-09 13:07:31.685,4.405331,2.2984335,-1.6472107
2014-03-09 13:07:31.692,4.213795,4.175488,-4.0222588
2014-03-09 13:07:31.709,5.171476,4.7884035,-7.0485296
2014-03-09 13:07:31.729,4.7884035,4.4436383,-7.0102224
2014-03-09 13:07:31.740,2.4899697,4.2904096,-5.5162406
2014-03-09 13:07:31.759,0.6512229,5.554548,-6.895301
2014-03-09 13:07:31.769,0.6512229,3.4859576,-3.6391866
2014-03-09 13:07:31.790,3.4093432,2.0685902,-2.4133554
2014-03-09 13:07:31.809,6.8186865,1.0342951,1.2258313
2014-03-09 13:07:31.819,11.530476,1.3790601,2.9879637
2014-03-09 13:07:31.832,14.671668,0.49799395,0.80445176
2014-03-09 13:07:31.850,15.131354,1.1492168,1.1492168
2014-03-09 13:07:31.870,15.246277,2.6048915,3.1794999
2014-03-09 13:07:31.880,17.161638,4.55856,2.183512
2014-03-09 13:07:31.898,17.659632,5.056554,1.0726024
2014-03-09 13:07:31.918,13.522451,4.4819455,1.6472107
2014-03-09 13:07:31.929,11.990162,5.056554,3.4476504
2014-03-09 13:07:31.949,14.403518,5.8226986,2.9113493
2014-03-09 13:07:31.959,15.897499,5.746084,1.4173675
2014-03-09 13:07:31.979,10.611102,4.9799395,4.4436383
2014-03-09 13:07:31.990,5.209783,5.899313,1.9919758
2014-03-09 13:07:32.011,6.0525417,6.742072,-1.3024458
2014-03-09 13:07:32.029,6.6654577,7.086837,-0.11492168
2014-03-09 13:07:32.039,7.929596,6.9719152,-0.038307227
2014-03-09 13:07:32.058,11.147403,5.7843914,-1.0342951
2014-03-09 13:07:32.069,14.709975,5.363012,-1.685518
2014-03-09 13:07:32.090,15.016433,3.2561142,-1.8387469
2014-03-09 13:07:32.109,12.794614,0.80445176,0.6895301
2014-03-09 13:07:32.118,11.9135475,0.9576807,0.15322891
2014-03-09 13:07:32.139,12.181698,0.842759,1.4556746
2014-03-09 13:07:32.149,13.599066,0.7278373,1.340753
2014-03-09 13:07:32.170,13.215993,1.6089035,4.0222588
2014-03-09 13:07:32.182,14.939818,4.060566,1.7238252
2014-03-09 13:07:32.199,16.127342,7.1251445,1.6089035
2014-03-09 13:07:32.220,17.621325,6.7803793,4.2521024
2014-03-09 13:07:32.231,14.441825,6.5505357,3.6391866
2014-03-09 13:07:32.250,10.113108,6.9719152,5.3247046
2014-03-09 13:07:32.261,9.5385,4.7884035,3.4093432
2014-03-09 13:07:32.279,9.270349,2.6431987,2.528277
2014-03-09 13:07:32.299,7.699753,1.1875241,1.2258313
2014-03-09 13:07:32.310,6.5122285,0.38307226,-0.61291564
2014-03-09 13:07:32.330,4.213795,-0.4213795,-1.2258313
2014-03-09 13:07:32.340,1.9919758,-1.2258313,-2.4133554
2014-03-09 13:07:32.359,0.076614454,-1.9919758,-3.86903
2014-03-09 13:07:32.379,-2.566584,-2.030283,0.038307227
2014-03-09 13:07:32.391,-4.4436383,-2.528277,-0.8810662
2014-03-09 13:07:32.416,-4.7884035,-2.336741,-1.685518
2014-03-09 13:07:32.435,-3.8307228,-0.076614454,-1.7621324
2014-03-09 13:07:32.443,-0.6512229,1.0342951,1.8387469
2014-03-09 13:07:32.458,3.217807,-0.2681506,4.7884035
2014-03-09 13:07:32.469,8.312668,1.1492168,10.994174
2014-03-09 13:07:32.481,18.119318,10.879252,19.6133
2014-03-09 13:07:32.499,19.6133,13.790602,18.540697
2014-03-09 13:07:32.519,19.574993,4.903325,-2.1452048
2014-03-09 13:07:32.530,19.383457,-4.0222588,17.927782
2014-03-09 13:07:32.550,11.377247,1.1109096,2.336741
2014-03-09 13:07:32.570,4.865018,3.0262709,-3.4859576
2014-03-09 13:07:32.580,2.2984335,4.865018,-3.2561142
2014-03-09 13:07:32.599,-0.6895301,4.9799395,-2.183512
2014-03-09 13:07:32.610,-2.9496565,5.592855,-4.7884035
2014-03-09 13:07:32.630,2.873042,5.439626,-15.897499
2014-03-09 13:07:32.643,8.00621,2.834735,-9.11712
2014-03-09 13:07:32.659,6.933608,2.4516625,4.4436383
2014-03-09 13:07:32.678,6.895301,3.4093432,5.9759274
2014-03-09 13:07:32.690,7.3549876,2.030283,-0.2681506
2014-03-09 13:07:32.709,8.619126,0.11492168,-4.4819455
2014-03-09 13:07:32.719,11.760319,1.6089035,0.8810662
2014-03-09 13:07:32.740,16.357185,2.4516625,-0.2681506
2014-03-09 13:07:32.759,19.6133,5.66947,-1.685518
2014-03-09 13:07:32.769,19.6133,12.181698,-7.8912888
2014-03-09 13:07:32.793,19.6133,10.266336,3.9839516
2014-03-09 13:07:32.801,19.6133,8.887277,8.772355
2014-03-09 13:07:32.819,19.6133,9.11712,10.572795
2014-03-09 13:07:32.840,19.6133,5.861006,12.334928
2014-03-09 13:07:32.850,19.6133,0.22984336,13.752295
2014-03-09 13:07:32.870,19.6133,-1.7238252,10.0748005
2014-03-09 13:07:32.879,19.498379,-2.7581203,7.393295
2014-03-09 13:07:32.899,16.625336,-1.6472107,4.55856
2014-03-09 13:07:32.910,11.032481,-0.11492168,2.336741
2014-03-09 13:07:32.930,6.397307,2.719813,-1.1875241
2014-03-09 13:07:32.951,2.834735,0.9576807,2.2601264
2014-03-09 13:07:32.959,-0.2681506,-1.6472107,1.532289
2014-03-09 13:07:32.979,-1.6089035,-2.9879637,0.9576807
2014-03-09 13:07:32.995,-3.1411927,-3.7541082,1.0726024
2014-03-09 13:07:33.011,-3.1028855,-3.4476504,-0.45968673
2014-03-09 13:07:33.031,-4.1371803,-3.6008794,-0.45968673
2014-03-09 13:07:33.041,-7.5465236,-6.5505357,-0.5363012
2014-03-09 13:07:33.059,-10.189722,-3.7924154,0.842759
2014-03-09 13:07:33.071,-10.879252,0.9959879,8.0445175
2014-03-09 13:07:33.093,-9.921572,-1.8387469,10.879252
2014-03-09 13:07:33.110,-8.542512,-3.1411927,8.350976
2014-03-09 13:07:33.119,-7.1251445,-1.3790601,12.220005
2014-03-09 13:07:33.139,-4.4436383,-2.030283,16.4338
2014-03-09 13:07:33.150,-2.4899697,-3.9073372,12.181698
2014-03-09 13:07:33.170,-0.038307227,-3.7541082,4.596867
2014-03-09 13:07:33.179,3.1411927,-2.030283,0.7278373
2014-03-09 13:07:33.198,6.9719152,-1.4939818,0.15322891
2014-03-09 13:07:33.219,19.153614,-8.121132,0.19153613
2014-03-09 13:07:33.229,19.6133,-5.8226986,-1.7621324
2014-03-09 13:07:33.259,10.955867,3.8307228,1.340753
2014-03-09 13:07:33.261,-1.7621324,5.0182467,0.6895301
2014-03-09 13:07:33.279,-2.9879637,2.9879637,-1.0726024
2014-03-09 13:07:33.300,-2.528277,0.19153613,-3.0262709
2014-03-09 13:07:33.311,-2.336741,-3.6391866,-5.363012
2014-03-09 13:07:33.331,0.5746084,-4.5202527,-7.393295
2014-03-09 13:07:33.348,5.592855,-1.9536686,-3.064578
2014-03-09 13:07:33.360,10.6877165,-4.405331,-2.528277
2014-03-09 13:07:33.370,11.453861,-7.469909,-1.2258313
2014-03-09 13:07:33.391,11.951855,-11.300632,1.4173675
2014-03-09 13:07:33.410,13.369223,-15.935806,6.3206925
2014-03-09 13:07:33.422,15.820885,-19.306843,8.121132
2014-03-09 13:07:33.440,15.7825775,-19.306843,4.673482
2014-03-09 13:07:33.451,10.879252,-17.046717,0.0
2014-03-09 13:07:33.471,10.304645,-9.270349,-1.9919758
2014-03-09 13:07:33.492,8.925584,-5.8226986,0.8810662
2014-03-09 13:07:33.503,5.707777,-6.742072,2.2601264
2014-03-09 13:07:33.521,5.401319,-9.80665,5.401319
2014-03-09 13:07:33.530,7.6614456,-11.070788,6.0525417
2014-03-09 13:07:33.549,7.1251445,-8.00621,5.66947
2014-03-09 13:07:33.559,4.9416323,-0.9959879,4.7884035
2014-03-09 13:07:33.579,3.6774938,1.3024458,0.8810662
2014-03-09 13:07:33.599,4.9799395,4.3287168,-2.2218192
2014-03-09 13:07:33.612,12.181698,-0.5363012,-3.1411927
2014-03-09 13:07:33.629,17.27656,-5.363012,-3.1411927
2014-03-09 13:07:33.639,9.078813,-3.4093432,-7.6614456
2014-03-09 13:07:33.659,1.5705963,-6.5122285,-2.528277
2014-03-09 13:07:33.679,0.7661445,-12.373235,0.842759
2014-03-09 13:07:33.689,3.217807,-8.197746,4.55856
2014-03-09 13:07:33.709,2.7581203,-5.3247046,1.9919758
2014-03-09 13:07:33.718,10.764331,-7.8529816,6.129156
2014-03-09 13:07:33.740,19.6133,-17.774553,19.6133
2014-03-09 13:07:33.749,7.929596,5.899313,-2.528277
2014-03-09 13:07:33.770,9.691729,-4.865018,2.1068976
2014-03-09 13:07:33.790,6.167464,-3.5625722,3.2944214
2014-03-09 13:07:33.798,2.4133554,-5.0182467,3.1794999
2014-03-09 13:07:33.818,4.098873,-5.554548,7.8912888
2014-03-09 13:07:33.829,7.0102224,-6.129156,8.734048
2014-03-09 13:07:33.849,7.967903,-5.554548,7.1634517
2014-03-09 13:07:33.870,8.0445175,-4.175488,6.933608
2014-03-09 13:07:33.879,7.431602,-4.405331,7.469909
2014-03-09 13:07:33.902,3.9839516,-6.5122285,5.5162406
2014-03-09 13:07:33.910,3.1794999,-6.5122285,2.6431987
2014-03-09 13:07:33.930,5.2863975,-5.439626,1.6472107
2014-03-09 13:07:33.942,6.167464,-4.098873,2.183512
2014-03-09 13:07:33.960,8.6574335,-2.7581203,4.367024
2014-03-09 13:07:33.980,9.80665,-2.9113493,5.4779334
2014-03-09 13:07:33.992,10.649409,-3.9456444,6.4739213
2014-03-09 13:07:34.010,9.040505,-3.064578,6.933608
2014-03-09 13:07:34.021,6.129156,-1.340753,4.7884035
2014-03-09 13:07:34.043,5.401319,-0.5363012,4.213795
2014-03-09 13:07:34.059,5.4779334,-0.38307226,5.0182467
2014-03-09 13:07:34.070,6.397307,-1.8387469,6.244078
2014-03-09 13:07:34.092,9.730036,-3.4093432,8.734048
2014-03-09 13:07:34.113,16.548721,-4.7884035,10.457873
2014-03-09 13:07:34.134,19.6133,-0.7278373,6.895301
2014-03-09 13:07:34.151,16.318878,0.6512229,4.903325
2014-03-09 13:07:34.159,7.776367,0.2681506,7.2783732
2014-03-09 13:07:34.170,4.098873,0.49799395,6.3589997
2014-03-09 13:07:34.181,3.9073372,-0.2681506,4.711789
2014-03-09 13:07:34.198,6.3206925,0.6512229,2.6048915
2014-03-09 13:07:34.209,6.8569937,1.9536686,0.45968673
2014-03-09 13:07:34.229,6.090849,2.4516625,-0.61291564
2014-03-09 13:07:34.249,5.171476,2.3750482,-0.6895301
2014-03-09 13:07:34.259,3.86903,2.4133554,-0.15322891
2014-03-09 13:07:34.278,3.1028855,2.4133554,0.0
2014-03-09 13:07:34.290,3.7541082,1.1875241,-0.038307227
2014-03-09 13:07:34.309,4.0222588,-0.6895301,0.34476504
2014-03-09 13:07:34.329,3.4476504,-2.4133554,1.532289
2014-03-09 13:07:34.342,1.8004397,-3.1028855,1.9536686
2014-03-09 13:07:34.360,0.2681506,-3.4093432,2.9879637
2014-03-09 13:07:34.371,0.0,-2.873042,2.873042
2014-03-09 13:07:34.391,1.0342951,-2.719813,3.1028855
2014-03-09 13:07:34.401,2.719813,-2.183512,4.060566
2014-03-09 13:07:34.420,4.865018,-2.030283,6.4739213
2014-03-09 13:07:34.443,8.810662,-1.9919758,9.730036
2014-03-09 13:07:34.459,10.649409,0.38307226,9.5385
2014-03-09 13:07:34.470,12.564771,3.064578,-2.183512
2014-03-09 13:07:34.481,19.34515,-1.4173675,-7.73806
2014-03-09 13:07:34.499,16.663643,0.076614454,-5.554548
2014-03-09 13:07:34.519,6.742072,-3.1794999,-4.060566
2014-03-09 13:07:34.529,3.5625722,-2.9879637,-1.8004397
2014-03-09 13:07:34.549,3.9839516,0.22984336,-1.3790601
2014-03-09 13:07:34.559,6.6654577,0.22984336,2.528277
2014-03-09 13:07:34.579,10.91756,-2.528277,8.6574335
2014-03-09 13:07:34.594,15.20797,-3.4859576,11.147403
2014-03-09 13:07:34.610,18.693928,0.30645782,13.905523
2014-03-09 13:07:34.630,19.6133,1.9536686,19.460072
2014-03-09 13:07:34.643,19.6133,12.717999,19.421764
2014-03-09 13:07:34.659,19.6133,15.246277,14.709975
2014-03-09 13:07:34.669,18.65562,1.9919758,14.135366
2014-03-09 13:07:34.690,9.730036,-0.30645782,9.002198
2014-03-09 13:07:34.709,6.0525417,-1.4939818,0.80445176
2014-03-09 13:07:34.719,6.0142345,-0.7661445,-1.6089035
2014-03-09 13:07:34.740,4.9799395,1.532289,-2.9879637
2014-03-09 13:07:34.749,3.9456444,1.8004397,-4.7884035
2014-03-09 13:07:34.770,1.2258313,2.566584,-4.673482
2014-03-09 13:07:34.791,-3.5242648,3.6391866,-3.6008794
2014-03-09 13:07:34.820,-6.6271505,4.2521024,-3.9073372
2014-03-09 13:07:34.849,-4.175488,3.5625722,-5.707777
2014-03-09 13:07:34.850,-3.1028855,3.7541082,-3.715801
2014-03-09 13:07:34.862,-1.7621324,1.7238252,0.076614454
2014-03-09 13:07:34.866,-0.19153613,-0.11492168,0.11492168
2014-03-09 13:07:34.880,1.1109096,-0.6512229,-0.45968673
2014-03-09 13:07:34.899,1.4556746,0.7278373,-0.6512229
2014-03-09 13:07:34.909,1.3024458,1.5705963,-0.11492168
2014-03-09 13:07:34.929,0.8810662,2.0685902,0.61291564
2014-03-09 13:07:34.939,0.91937345,1.1109096,1.2641385
2014-03-09 13:07:34.959,1.9919758,-2.566584,2.1452048
2014-03-09 13:07:34.979,6.5122285,-3.6008794,14.5567465
2014-03-09 13:07:34.996,12.488156,-5.861006,19.6133
2014-03-09 13:07:35.010,19.460072,-0.5746084,18.50239
2014-03-09 13:07:35.021,19.6133,-3.9073372,-0.6512229
2014-03-09 13:07:35.040,19.6133,-2.336741,-0.076614454
2014-03-09 13:07:35.050,19.6133,4.5202527,6.7803793
2014-03-09 13:07:35.070,19.6133,4.1371803,4.3287168
2014-03-09 13:07:35.092,18.847157,5.3247046,-4.596867
2014-03-09 13:07:35.104,13.67568,3.7924154,-1.7621324
2014-03-09 13:07:35.120,9.500193,4.596867,-4.060566
2014-03-09 13:07:35.130,1.9536686,4.2521024,-2.4899697
2014-03-09 13:07:35.150,-2.0685902,3.7541082,1.2258313
2014-03-09 13:07:35.170,-3.6391866,4.596867,0.9959879
2014-03-09 13:07:35.181,-0.842759,6.167464,-4.0222588
2014-03-09 13:07:35.201,5.2480903,4.8267107,-2.9113493
2014-03-09 13:07:35.211,11.60709,2.7581203,-1.1492168
2014-03-09 13:07:35.230,18.310854,2.1068976,-1.1875241
2014-03-09 13:07:35.242,15.552734,-0.5746084,0.8810662
2014-03-09 13:07:35.258,7.967903,-0.15322891,4.7884035
2014-03-09 13:07:35.279,4.7500963,2.336741,4.367024
2014-03-09 13:07:35.290,4.405331,4.2904096,1.2641385
2014-03-09 13:07:35.309,4.367024,3.217807,0.49799395
2014-03-09 13:07:35.318,4.213795,1.0726024,0.9576807
2014-03-09 13:07:35.357,5.133168,-1.8387469,3.1794999
2014-03-09 13:07:35.359,7.431602,-4.175488,7.240066
2014-03-09 13:07:35.369,10.994174,-3.4093432,12.947843
2014-03-09 13:07:35.390,18.693928,1.6089035,1.9919758
2014-03-09 13:07:35.399,19.6133,4.903325,-0.22984336
2014-03-09 13:07:35.419,19.230228,0.22984336,4.367024
2014-03-09 13:07:35.439,13.024457,1.2258313,-0.9576807
2014-03-09 13:07:35.449,9.078813,3.1028855,0.49799395
2014-03-09 13:07:35.469,10.381259,3.8307228,1.9919758
2014-03-09 13:07:35.478,11.453861,5.0182467,-2.9879637
2014-03-09 13:07:35.499,8.465898,5.707777,-5.3247046
2014-03-09 13:07:35.509,4.9416323,5.899313,-5.209783
2014-03-09 13:07:35.529,2.4133554,5.4779334,-4.865018
2014-03-09 13:07:35.542,2.566584,4.3287168,-3.7541082
2014-03-09 13:07:35.560,4.596867,3.217807,-2.4133554
2014-03-09 13:07:35.580,5.66947,1.6089035,-0.30645782
2014-03-09 13:07:35.590,6.7803793,0.038307227,0.7278373
2014-03-09 13:07:35.608,10.0748005,1.8770541,3.2561142
2014-03-09 13:07:35.628,14.211981,6.129156,11.377247
2014-03-09 13:07:35.642,18.885464,11.760319,12.717999
2014-03-09 13:07:35.659,19.6133,11.645397,14.020445
2014-03-09 13:07:35.669,19.6133,2.719813,5.209783
2014-03-09 13:07:35.689,19.6133,6.435614,7.1251445
2014-03-09 13:07:35.698,15.246277,2.6048915,8.0445175
2014-03-09 13:07:35.718,6.205771,-0.038307227,5.707777
2014-03-09 13:07:35.740,5.133168,1.4939818,0.11492168
2014-03-09 13:07:35.748,6.6654577,4.3287168,-7.393295
2014-03-09 13:07:35.768,5.861006,4.9799395,-5.592855
2014-03-09 13:07:35.779,-0.7278373,5.7843914,-13.024457
2014-03-09 13:07:35.806,3.0262709,2.834735,-16.931795
2014-03-09 13:07:35.819,8.542512,2.4899697,-0.6895301
2014-03-09 13:07:35.829,14.824897,7.6231384,3.0262709
2014-03-09 13:07:35.849,19.6133,12.028469,-0.842759
2014-03-09 13:07:35.861,19.6133,16.127342,5.9759274
2014-03-09 13:07:35.881,19.6133,14.5567465,7.73806
2014-03-09 13:07:35.890,19.460072,7.0485296,7.2783732
2014-03-09 13:07:35.909,15.437813,3.7541082,10.496181
2014-03-09 13:07:35.929,11.18571,4.2521024,6.2823853
2014-03-09 13:07:35.948,9.193734,3.0262709,1.2641385
2014-03-09 13:07:35.960,7.967903,0.19153613,-3.4093432
2014-03-09 13:07:35.969,5.4779334,-1.3024458,-4.673482
2014-03-09 13:07:35.990,-1.340753,-1.7238252,-3.2561142
2014-03-09 13:07:36.009,-2.4133554,-3.9456444,-7.0485296
2014-03-09 13:07:36.020,-0.15322891,-5.4779334,-8.274361
2014-03-09 13:07:36.061,-0.45968673,-3.7541082,-2.528277
2014-03-09 13:07:36.063,-0.5746084,-2.7581203,0.5363012
2014-03-09 13:07:36.073,0.19153613,-1.2258313,3.6391866
2014-03-09 13:07:36.081,2.4133554,0.6512229,5.363012
2014-03-09 13:07:36.099,3.4476504,-0.80445176,2.6431987
2014-03-09 13:07:36.119,3.4859576,-2.183512,3.5625722
2014-03-09 13:07:36.128,5.3247046,-2.2218192,8.350976
2014-03-09 13:07:36.148,12.334928,-1.2641385,17.429789
2014-03-09 13:07:36.159,19.6133,6.205771,5.4779334
2014-03-09 13:07:36.179,19.6133,11.60709,7.6231384
2014-03-09 13:07:36.193,19.6133,-0.61291564,12.181698
2014-03-09 13:07:36.209,19.6133,2.528277,11.722012
2014-03-09 13:07:36.229,19.000385,2.834735,6.9719152
2014-03-09 13:07:36.241,15.284584,4.213795,5.5162406
2014-03-09 13:07:36.260,14.097059,5.861006,-4.0222588
2014-03-09 13:07:36.280,12.105083,1.532289,-7.6614456
2014-03-09 13:07:36.290,6.6271505,0.0,-9.232041
2014-03-09 13:07:36.309,0.6512229,1.1492168,-7.5082164
2014-03-09 13:07:36.321,-0.6895301,1.4556746,-4.175488
2014-03-09 13:07:36.342,-1.2258313,1.7238252,-1.4939818
2014-03-09 13:07:36.350,-0.91937345,-1.2641385,1.1492168
2014-03-09 13:07:36.369,0.842759,-1.7238252,2.1452048
2014-03-09 13:07:36.390,3.6008794,-0.6895301,5.5162406
2014-03-09 13:07:36.401,4.2904096,-2.183512,9.193734
2014-03-09 13:07:36.421,9.921572,-4.903325,12.449849
2014-03-09 13:07:36.430,18.08101,-7.699753,15.1696615
2014-03-09 13:07:36.448,19.6133,-4.711789,12.794614
2014-03-09 13:07:36.463,19.536686,-4.0222588,7.8529816
2014-03-09 13:07:36.479,15.935806,-1.532289,2.4133554
2014-03-09 13:07:36.499,11.070788,2.7581203,3.2561142
2014-03-09 13:07:36.508,15.246277,3.3327289,2.7964275
2014-03-09 13:07:36.528,19.6133,1.532289,-2.030283
2014-03-09 13:07:36.540,19.6133,-0.2681506,5.746084
2014-03-09 13:07:36.559,19.077,-3.6008794,10.228029
2014-03-09 13:07:36.579,15.859192,-6.167464,10.994174
2014-03-09 13:07:36.589,13.024457,-7.1634517,13.024457
2014-03-09 13:07:36.609,11.18571,-5.363012,11.9135475
2014-03-09 13:07:36.619,10.266336,-3.1794999,14.058752
2014-03-09 13:07:36.640,13.982138,-1.7238252,15.7825775
2014-03-09 13:07:36.659,17.353174,-2.9879637,5.8226986
2014-03-09 13:07:36.668,19.6133,-5.3247046,-0.076614454
2014-03-09 13:07:36.689,17.046717,-3.8307228,-1.7621324
2014-03-09 13:07:36.699,7.0485296,-0.7661445,-1.4173675
2014-03-09 13:07:36.719,3.2944214,1.1492168,-2.6048915
2014-03-09 13:07:36.741,2.2601264,1.9153614,-3.4859576
2014-03-09 13:07:36.749,0.8810662,2.2218192,-0.61291564
2014-03-09 13:07:36.769,-0.038307227,2.4899697,5.363012
2014-03-09 13:07:36.780,1.2258313,2.9113493,6.090849
2014-03-09 13:07:36.799,3.8307228,2.2601264,0.19153613
2014-03-09 13:07:36.808,4.6351743,1.3790601,-4.2904096
2014-03-09 13:07:36.828,4.213795,-0.7661445,4.865018
2014-03-09 13:07:36.844,7.967903,-2.834735,11.683704
2014-03-09 13:07:36.860,13.101071,-4.2904096,12.603078
2014-03-09 13:07:36.880,16.472107,-8.465898,10.840945
2014-03-09 13:07:36.892,14.288596,-10.151415,7.1634517
2014-03-09 13:07:36.909,10.879252,-8.00621,4.1371803
2014-03-09 13:07:36.929,8.810662,-4.1371803,4.8267107
2014-03-09 13:07:36.941,8.619126,-0.7278373,4.7884035
2014-03-09 13:07:36.961,10.381259,2.566584,2.183512
2014-03-09 13:07:36.969,10.764331,3.8307228,0.5363012
2014-03-09 13:07:36.990,8.082825,3.0262709,1.4556746
2014-03-09 13:07:37.000,5.631162,1.1109096,2.3750482
2014-03-09 13:07:37.020,5.4779334,0.038307227,2.7581203
2014-03-09 13:07:37.041,7.086837,0.0,3.7924154
2014-03-09 13:07:37.050,9.270349,0.11492168,4.6351743
2014-03-09 13:07:37.069,9.615114,-0.38307226,4.2904096
2014-03-09 13:07:37.081,8.772355,-1.340753,3.9839516
2014-03-09 13:07:37.101,8.0445175,-1.9153614,3.9839516
2014-03-09 13:07:37.121,8.0445175,-1.9153614,4.060566
2014-03-09 13:07:37.129,8.389283,-1.685518,5.171476
2014-03-09 13:07:37.149,8.695741,-1.6089035,6.8569937
2014-03-09 13:07:37.160,9.155427,-1.8004397,8.389283
2014-03-09 13:07:37.180,9.80665,-2.4899697,9.730036
2014-03-09 13:07:37.190,11.147403,-3.2944214,10.151415
2014-03-09 13:07:37.209,12.105083,-3.4859576,9.959879
2014-03-09 13:07:37.229,12.334928,-3.6774938,10.036493
2014-03-09 13:07:37.241,12.258312,-3.064578,9.193734
2014-03-09 13:07:37.260,11.262324,-1.2258313,8.0445175
2014-03-09 13:07:37.269,10.6877165,0.6512229,6.6271505
2014-03-09 13:07:37.290,10.802638,0.5746084,4.7500963
2014-03-09 13:07:37.309,11.300632,-0.5746084,2.4899697
2014-03-09 13:07:37.321,10.6877165,-1.340753,0.30645782
2014-03-09 13:07:37.341,8.121132,-1.1492168,-1.1109096
2014-03-09 13:07:37.349,5.3247046,-0.15322891,-1.2641385
2014-03-09 13:07:37.369,3.6774938,0.8810662,-0.80445176
2014-03-09 13:07:37.380,3.4476504,1.8770541,-0.49799395
2014-03-09 13:07:37.400,4.1371803,2.834735,-0.91937345
2014-03-09 13:07:37.421,4.367024,3.2944214,-1.2641385
2014-03-09 13:07:37.429,4.0222588,3.064578,-0.9576807
2014-03-09 13:07:37.449,3.4093432,2.2218192,-0.19153613
2014-03-09 13:07:37.460,3.6774938,0.49799395,0.19153613
2014-03-09 13:07:37.480,5.056554,-1.5705963,0.45968673
2014-03-09 13:07:37.501,7.8529816,-2.7964275,0.6512229
2014-03-09 13:07:37.510,11.032481,-3.1028855,0.6895301
2014-03-09 13:07:37.529,11.836933,-2.336741,2.1068976
2014-03-09 13:07:37.545,11.530476,-1.6089035,3.217807
2014-03-09 13:07:37.559,10.189722,-1.2258313,3.9073372
2014-03-09 13:07:37.579,8.465898,-0.9576807,5.4779334
2014-03-09 13:07:37.589,8.121132,-1.1109096,6.8186865
2014-03-09 13:07:37.608,9.691729,-1.1109096,5.93762
2014-03-09 13:07:37.619,11.60709,-1.4173675,4.55856
2014-03-09 13:07:37.639,12.143391,-1.6089035,4.7500963
2014-03-09 13:07:37.648,11.9135475,-1.8387469,3.4859576
2014-03-09 13:07:37.668,11.224017,-2.6431987,2.4899697
2014-03-09 13:07:37.689,10.572795,-2.9879637,1.1875241
2014-03-09 13:07:37.700,10.534488,-1.4556746,0.7278373
2014-03-09 13:07:37.720,10.228029,0.6895301,0.91937345
2014-03-09 13:07:37.728,9.5385,1.2641385,1.3024458
2014-03-09 13:07:37.749,9.5385,1.4173675,1.1875241
2014-03-09 13:07:37.769,9.768343,1.9919758,0.6895301
2014-03-09 13:07:37.781,9.5385,2.4516625,0.2681506
2014-03-09 13:07:37.800,7.776367,2.6431987,-0.22984336
2014-03-09 13:07:37.809,6.397307,2.183512,-0.6895301
2014-03-09 13:07:37.828,7.5465236,2.681506,-0.9959879
2014-03-09 13:07:37.841,9.232041,3.2944214,-0.34476504
2014-03-09 13:07:37.860,9.653421,2.9879637,0.038307227
2014-03-09 13:07:37.880,9.346964,2.1452048,0.19153613
2014-03-09 13:07:37.889,9.308656,1.4556746,0.15322891
2014-03-09 13:07:37.909,10.036493,0.4213795,-0.2681506
2014-03-09 13:07:37.920,11.224017,-0.80445176,-1.1492168
2014-03-09 13:07:37.951,10.381259,-1.2641385,-0.22984336
2014-03-09 13:07:37.961,6.6654577,-0.80445176,0.6895301
2014-03-09 13:07:37.971,6.7803793,0.5363012,-0.45968673
2014-03-09 13:07:37.991,9.615114,2.566584,0.19153613
2014-03-09 13:07:38.001,11.760319,1.3024458,0.19153613
2014-03-09 13:07:38.021,11.951855,-0.22984336,-0.45968673
2014-03-09 13:07:38.031,9.80665,-0.5363012,-0.19153613
2014-03-09 13:07:38.050,7.8912888,-0.6512229,0.4213795
2014-03-09 13:07:38.070,8.00621,-0.2681506,0.15322891
2014-03-09 13:07:38.081,10.572795,0.15322891,-1.340753
2014-03-09 13:07:38.101,11.990162,0.076614454,-1.0342951
2014-03-09 13:07:38.112,10.572795,0.5363012,-0.8810662
2014-03-09 13:07:38.130,8.848969,1.1875241,-0.7278373
2014-03-09 13:07:38.150,8.082825,1.8004397,-1.0726024
2014-03-09 13:07:38.160,8.6574335,2.030283,-1.6472107
2014-03-09 13:07:38.180,9.040505,2.1452048,-1.4556746
2014-03-09 13:07:38.192,10.113108,2.719813,-2.183512
2014-03-09 13:07:38.210,10.649409,2.719813,-1.1492168
2014-03-09 13:07:38.221,10.342952,1.8004397,0.076614454
2014-03-09 13:07:38.241,10.151415,0.61291564,-0.91937345
2014-03-09 13:07:38.260,12.028469,0.6895301,-0.9959879
2014-03-09 13:07:38.271,14.173674,0.076614454,-0.15322891
2014-03-09 13:07:38.291,15.399506,-0.49799395,0.038307227
2014-03-09 13:07:38.300,13.867216,-1.1109096,0.11492168
2014-03-09 13:07:38.321,11.760319,-0.5746084,0.80445176
2014-03-09 13:07:38.342,11.300632,-0.34476504,0.7661445
2014-03-09 13:07:38.352,11.645397,-0.30645782,0.7278373
2014-03-09 13:07:38.371,12.220005,0.5746084,0.91937345
2014-03-09 13:07:38.380,12.98615,1.3790601,0.6895301
2014-03-09 13:07:38.400,13.215993,1.532289,0.38307226
2014-03-09 13:07:38.421,12.871228,1.1492168,-0.30645782
2014-03-09 13:07:38.432,11.87524,0.9959879,-0.4213795
2014-03-09 13:07:38.450,10.649409,0.9959879,-0.45968673
2014-03-09 13:07:38.460,9.80665,0.9959879,-0.9576807
2014-03-09 13:07:38.494,10.151415,1.2258313,-1.5705963
2014-03-09 13:07:38.504,11.377247,1.6472107,-2.2984335
2014-03-09 13:07:38.515,12.143391,1.685518,-2.2601264
2014-03-09 13:07:38.530,11.530476,1.4173675,-1.7621324
2014-03-09 13:07:38.545,9.883265,1.0726024,-1.1875241
2014-03-09 13:07:38.559,8.848969,0.7278373,-1.2258313
2014-03-09 13:07:38.568,8.734048,0.7278373,-1.7238252
2014-03-09 13:07:38.590,8.619126,0.7661445,-1.8004397
2014-03-09 13:07:38.608,8.274361,0.5363012,-1.685518
2014-03-09 13:07:38.619,7.6231384,0.5363012,-0.91937345
2014-03-09 13:07:38.640,6.7803793,0.7661445,-0.6895301
2014-03-09 13:07:38.648,7.5465236,0.91937345,-0.45968673
2014-03-09 13:07:38.670,8.848969,1.4939818,-0.4213795
2014-03-09 13:07:38.680,9.80665,1.9153614,-0.34476504
2014-03-09 13:07:38.699,9.653421,1.9153614,-0.80445176
2014-03-09 13:07:38.719,9.193734,1.6089035,-0.80445176
2014-03-09 13:07:38.729,9.5385,1.1492168,-0.38307226
2014-03-09 13:07:38.748,9.346964,1.3790601,-0.11492168
2014-03-09 13:07:38.759,9.193734,0.9576807,0.11492168
2014-03-09 13:07:38.779,8.6574335,1.5705963,0.22984336
2014-03-09 13:07:38.799,9.5385,1.9919758,0.2681506
2014-03-09 13:07:38.808,8.887277,0.8810662,-0.19153613
2014-03-09 13:07:38.829,7.699753,-0.38307226,0.34476504
2014-03-09 13:07:38.843,8.121132,-1.0726024,0.6512229
2014-03-09 13:07:38.860,8.772355,-1.7621324,0.2681506
2014-03-09 13:07:38.870,9.461885,-2.2601264,0.0
2014-03-09 13:07:38.890,10.304645,-2.4899697,-0.15322891
2014-03-09 13:07:38.909,10.304645,-2.2218192,-0.6895301
2014-03-09 13:07:38.920,9.385271,-1.4556746,-0.8810662
2014-03-09 13:07:38.941,9.423578,-0.5746084,-0.2681506
2014-03-09 13:07:38.951,9.959879,0.842759,-0.45968673
2014-03-09 13:07:38.969,11.453861,4.9799395,-0.91937345
2014-03-09 13:07:38.990,11.951855,3.2944214,2.7964275
2014-03-09 13:07:39.000,9.308656,-2.2601264,1.2258313
2014-03-09 13:07:39.020,7.776367,-2.2218192,-1.3790601
2014-03-09 13:07:39.030,8.734048,-1.1109096,-3.2944214
2014-03-09 13:07:39.057,8.580819,-0.9959879,-3.7541082
2014-03-09 13:07:39.067,6.8569937,-0.8810662,-3.7924154
2014-03-09 13:07:39.095,7.0485296,-0.6512229,-2.7964275
2014-03-09 13:07:39.102,10.304645,-0.4213795,-3.0262709
2014-03-09 13:07:39.114,8.504205,-1.0342951,-3.3327289
2014-03-09 13:07:39.129,11.147403,-0.9959879,-2.1068976
2014-03-09 13:07:39.140,12.258312,-1.6472107,-2.2601264
2014-03-09 13:07:39.159,11.300632,-2.2984335,-2.4899697
2014-03-09 13:07:39.179,9.11712,-2.4899697,-1.4173675
2014-03-09 13:07:39.190,6.5505357,-2.4516625,-0.38307226
2014-03-09 13:07:39.209,6.7803793,-1.4173675,1.1875241
2014-03-09 13:07:39.220,8.6574335,-1.4556746,1.5705963
2014-03-09 13:07:39.241,9.232041,-1.6089035,1.1875241
2014-03-09 13:07:39.260,9.346964,-2.030283,0.5746084
2014-03-09 13:07:39.270,9.078813,-2.0685902,-0.2681506
2014-03-09 13:07:39.291,7.6614456,-1.3024458,-0.4213795
2014-03-09 13:07:39.299,6.6654577,-0.9959879,-0.22984336
2014-03-09 13:07:39.319,7.5465236,0.45968673,-1.9536686
2014-03-09 13:07:39.329,8.00621,0.61291564,-1.6472107
2014-03-09 13:07:39.348,10.572795,-1.2258313,-2.030283
2014-03-09 13:07:39.369,10.381259,-2.336741,-1.9536686
2014-03-09 13:07:39.379,9.346964,-3.1411927,-0.91937345
2014-03-09 13:07:39.399,10.496181,-4.175488,-0.19153613
2014-03-09 13:07:39.408,9.653421,-4.3287168,-0.038307227
2014-03-09 13:07:39.429,8.42759,-4.0222588,0.4213795
2014-03-09 13:07:39.449,8.6574335,-4.2521024,0.22984336
2014-03-09 13:07:39.459,7.0102224,-4.4436383,-0.6895301
2014-03-09 13:07:39.482,6.8186865,-4.098873,-1.3024458
2014-03-09 13:07:39.496,8.887277,-2.566584,-2.030283
2014-03-09 13:07:39.511,8.925584,-1.532289,-2.1452048
2014-03-09 13:07:39.520,8.350976,-1.6089035,-1.5705963
2014-03-09 13:07:39.539,8.312668,-2.030283,-1.2641385
2014-03-09 13:07:39.559,8.619126,-2.336741,-1.2641385
2014-03-09 13:07:39.569,8.082825,-2.7581203,-1.1875241
2014-03-09 13:07:39.590,7.967903,-2.873042,-1.2258313
2014-03-09 13:07:39.598,7.73806,-2.873042,-1.3024458
2014-03-09 13:07:39.619,9.078813,-3.064578,-0.8810662
2014-03-09 13:07:39.639,8.887277,-2.873042,0.15322891
2014-03-09 13:07:39.649,8.695741,-2.6048915,0.7278373
2014-03-09 13:07:39.669,8.42759,-2.3750482,0.038307227
2014-03-09 13:07:39.678,8.274361,-2.0685902,-1.2258313
2014-03-09 13:07:39.699,8.580819,-2.4133554,-1.8387469
2014-03-09 13:07:39.718,8.848969,-2.719813,-1.8387469
2014-03-09 13:07:39.729,9.040505,-2.566584,-1.8004397
2014-03-09 13:07:39.749,8.42759,-2.528277,-1.5705963
2014-03-09 13:07:39.759,7.3549876,-2.2601264,-1.0342951
2014-03-09 13:07:39.789,6.7803793,-2.030283,-0.9576807
2014-03-09 13:07:39.794,7.3166804,-1.8387469,-0.91937345
2014-03-09 13:07:39.808,8.312668,-1.9919758,-1.1109096
2014-03-09 13:07:39.828,9.232041,-2.030283,-1.5705963
2014-03-09 13:07:39.839,9.730036,-1.8770541,-1.8387469
2014-03-09 13:07:39.859,9.730036,-1.7238252,-1.9536686
2014-03-09 13:07:39.868,9.844957,-1.6472107,-1.7621324
2014-03-09 13:07:39.889,9.5385,-1.685518,-1.4556746
2014-03-09 13:07:39.918,8.734048,-1.6472107,-0.9959879
2014-03-09 13:07:39.922,8.810662,-1.7238252,-0.45968673
2014-03-09 13:07:39.939,7.967903,-1.6472107,0.15322891
2014-03-09 13:07:39.949,6.588843,-1.0726024,0.34476504
2014-03-09 13:07:39.969,6.435614,-0.842759,0.7278373
2014-03-09 13:07:39.979,7.201759,-0.80445176,1.2641385
2014-03-09 13:07:39.999,9.11712,-0.842759,1.9919758
2014-03-09 13:07:40.019,10.879252,-0.7278373,2.2601264
2014-03-09 13:07:40.030,11.568783,-0.6895301,2.2218192
2014-03-09 13:07:40.050,12.028469,-1.2258313,1.3790601
2014-03-09 13:07:40.059,12.29662,-1.6472107,0.7661445
2014-03-09 13:07:40.082,12.220005,-2.0685902,0.91937345
2014-03-09 13:07:40.101,10.457873,-1.9536686,1.1492168
2014-03-09 13:07:40.110,9.423578,-1.7238252,1.4556746
2014-03-09 13:07:40.130,9.232041,-1.2641385,0.8810662
2014-03-09 13:07:40.141,9.691729,-0.4213795,-0.30645782
2014-03-09 13:07:40.160,9.576807,0.4213795,-0.80445176
2014-03-09 13:07:40.169,10.266336,1.7238252,0.076614454
2014-03-09 13:07:40.190,10.91756,0.80445176,-0.15322891
2014-03-09 13:07:40.209,11.224017,-0.22984336,0.5746084
2014-03-09 13:07:40.221,10.0748005,-0.34476504,1.4173675
2014-03-09 13:07:40.241,9.193734,-0.2681506,1.6472107
2014-03-09 13:07:40.249,8.619126,-0.38307226,2.1452048
2014-03-09 13:07:40.269,8.504205,-1.6089035,2.4133554
2014-03-09 13:07:40.290,9.80665,-2.4133554,2.4133554
2014-03-09 13:07:40.301,9.80665,-2.183512,2.2218192
2014-03-09 13:07:40.321,8.619126,-0.9576807,1.8004397
2014-03-09 13:07:40.329,7.6614456,0.038307227,1.1492168
2014-03-09 13:07:40.349,7.3549876,1.9153614,0.7661445
2014-03-09 13:07:40.361,7.0102224,2.7964275,1.685518
2014-03-09 13:07:40.380,4.903325,3.2561142,1.8770541
2014-03-09 13:07:40.400,7.929596,2.4899697,0.8810662
2014-03-09 13:07:40.409,9.5385,0.076614454,1.4556746
2014-03-09 13:07:40.429,9.730036,-4.903325,3.1411927
2014-03-09 13:07:40.441,9.844957,-4.4819455,4.596867
2014-03-09 13:07:40.460,8.236053,0.45968673,2.3750482
2014-03-09 13:07:40.480,8.542512,4.8267107,-0.49799395
2014-03-09 13:07:40.513,9.308656,5.554548,0.30645782
2014-03-09 13:07:40.524,9.423578,3.9073372,2.0685902
2014-03-09 13:07:40.527,9.653421,3.0262709,2.719813
2014-03-09 13:07:40.539,9.883265,1.4556746,2.0685902
2014-03-09 13:07:40.559,9.768343,0.45968673,1.2258313
2014-03-09 13:07:40.568,10.572795,-0.6895301,1.4939818
2014-03-09 13:07:40.589,14.748282,-1.1492168,4.4436383
2014-03-09 13:07:40.599,12.5264635,-0.6895301,4.3287168
2014-03-09 13:07:40.619,10.266336,-1.8004397,3.5242648
2014-03-09 13:07:40.628,11.760319,-0.9576807,4.0222588
2014-03-09 13:07:40.649,9.730036,0.15322891,1.8004397
2014-03-09 13:07:40.668,8.00621,0.9959879,1.532289
2014-03-09 13:07:40.682,8.0445175,1.7621324,2.4516625
2014-03-09 13:07:40.699,7.5082164,2.1452048,1.9919758
2014-03-09 13:07:40.708,9.576807,2.2218192,1.6089035
2014-03-09 13:07:40.728,9.500193,1.8004397,1.4939818
2014-03-09 13:07:40.741,9.155427,1.0342951,2.2984335
2014-03-09 13:07:40.760,8.580819,1.1492168,1.8770541
2014-03-09 13:07:40.784,9.078813,1.4556746,1.9536686
2014-03-09 13:07:40.789,9.040505,2.030283,2.4899697
2014-03-09 13:07:40.809,10.381259,1.9536686,3.217807
2014-03-09 13:07:40.819,10.381259,1.3024458,3.1411927
2014-03-09 13:07:40.857,10.611102,1.7621324,1.9153614
2014-03-09 13:07:40.869,9.193734,1.8387469,1.8770541
2014-03-09 13:07:40.890,8.504205,1.3024458,2.4133554
2014-03-09 13:07:40.901,7.431602,1.6089035,2.4899697
2014-03-09 13:07:40.918,8.810662,1.3024458,3.2944214
2014-03-09 13:07:40.939,11.836933,1.7621324,4.0222588
2014-03-09 13:07:40.948,10.840945,2.6431987,3.2944214
2014-03-09 13:07:40.968,10.457873,3.064578,2.9496565
2014-03-09 13:07:40.979,11.760319,2.6048915,2.9879637
2014-03-09 13:07:40.999,11.032481,1.7238252,2.4133554
2014-03-09 13:07:41.008,10.228029,0.842759,3.1411927
2014-03-09 13:07:41.028,8.925584,0.8810662,3.7541082
2014-03-09 13:07:41.049,7.469909,1.7621324,3.6391866
2014-03-09 13:07:41.059,8.810662,2.2601264,3.5625722
2014-03-09 13:07:41.080,8.734048,2.030283,2.4516625
2014-03-09 13:07:41.089,8.504205,1.2258313,2.2218192
2014-03-09 13:07:41.110,8.082825,0.7661445,2.4899697
2014-03-09 13:07:41.129,10.802638,1.3790601,1.5705963
2014-03-09 13:07:41.141,11.683704,2.0685902,0.45968673
2014-03-09 13:07:41.160,9.921572,2.719813,3.2561142
2014-03-09 13:07:41.169,6.6654577,2.0685902,3.715801
2014-03-09 13:07:41.190,7.776367,0.45968673,3.9839516
2014-03-09 13:07:41.209,9.5385,-0.15322891,3.9839516
2014-03-09 13:07:41.221,8.963891,-0.11492168,1.6472107
2014-03-09 13:07:41.241,10.228029,0.842759,1.1109096
2014-03-09 13:07:41.250,10.726024,1.340753,2.2984335
2014-03-09 13:07:41.269,9.653421,0.9959879,3.371036
2014-03-09 13:07:41.281,8.42759,0.842759,4.2521024
2014-03-09 13:07:41.301,9.80665,1.2258313,4.5202527
2014-03-09 13:07:41.322,8.121132,0.6895301,2.9496565
2014-03-09 13:07:41.330,7.776367,1.1492168,1.8387469
2014-03-09 13:07:41.351,8.42759,1.5705963,2.1068976
2014-03-09 13:07:41.361,8.772355,1.4173675,2.873042
2014-03-09 13:07:41.382,8.695741,1.4939818,2.9496565
2014-03-09 13:07:41.401,8.350976,1.5705963,2.6431987
2014-03-09 13:07:41.415,8.197746,1.4556746,2.2984335
2014-03-09 13:07:41.429,8.695741,1.5705963,1.9536686
2014-03-09 13:07:41.444,9.768343,1.7238252,2.2218192
2014-03-09 13:07:41.460,9.232041,1.9919758,2.566584
2014-03-09 13:07:41.468,9.346964,1.9919758,3.5242648
2014-03-09 13:07:41.489,10.994174,1.7238252,5.209783
2014-03-09 13:07:41.509,11.9135475,1.2258313,6.0525417
2014-03-09 13:07:41.520,11.070788,1.0726024,5.209783
2014-03-09 13:07:41.565,9.078813,1.532289,3.7924154
2014-03-09 13:07:41.566,7.3549876,1.4556746,2.719813
2014-03-09 13:07:41.596,7.5465236,0.45968673,2.7581203
2014-03-09 13:07:41.607,9.193734,0.11492168,2.4133554
2014-03-09 13:07:41.611,8.121132,-0.15322891,2.1068976
2014-03-09 13:07:41.621,5.7843914,-0.842759,1.4173675
2014-03-09 13:07:41.631,6.129156,-0.6895301,1.8004397
2014-03-09 13:07:41.649,9.193734,-0.15322891,3.2561142
2014-03-09 13:07:41.659,12.028469,0.842759,4.175488
2014-03-09 13:07:41.678,10.0748005,1.2641385,3.5625722
2014-03-09 13:07:41.700,7.5082164,-0.076614454,2.7964275
2014-03-09 13:07:41.709,8.197746,0.4213795,2.0685902
2014-03-09 13:07:41.729,10.840945,1.8004397,-0.9959879
2014-03-09 13:07:41.740,15.322891,3.1794999,-4.2904096
2014-03-09 13:07:41.759,13.369223,2.9879637,-4.673482
2014-03-09 13:07:41.780,9.653421,3.1411927,-0.61291564
2014-03-09 13:07:41.793,7.5848308,2.9496565,6.0525417
2014-03-09 13:07:41.808,8.197746,3.1411927,7.431602
2014-03-09 13:07:41.819,7.5082164,4.4819455,2.6048915
2014-03-09 13:07:41.842,5.554548,2.9496565,5.3247046
2014-03-09 13:07:41.849,5.66947,0.61291564,5.707777
2014-03-09 13:07:41.869,11.990162,-2.030283,3.5242648
2014-03-09 13:07:41.893,12.334928,-4.098873,2.834735
2014-03-09 13:07:41.900,14.250289,-5.401319,-2.6048915
2014-03-09 13:07:41.920,11.109096,-1.4173675,2.1068976
2014-03-09 13:07:41.931,9.691729,2.030283,3.9456444
2014-03-09 13:07:41.950,7.240066,2.719813,5.133168
2014-03-09 13:07:41.969,6.895301,3.7541082,2.4516625
2014-03-09 13:07:41.981,6.9719152,2.9496565,-1.8387469
2014-03-09 13:07:42.001,10.955867,3.6008794,-3.4476504
2014-03-09 13:07:42.008,16.816874,0.22984336,1.685518
2014-03-09 13:07:42.028,14.939818,-3.4859576,3.715801
2014-03-09 13:07:42.040,17.161638,1.4556746,6.167464
2014-03-09 13:07:42.059,17.621325,4.55856,7.5082164
2014-03-09 13:07:42.079,18.847157,3.9073372,1.4939818
2014-03-09 13:07:42.089,19.383457,1.4939818,1.1492168
2014-03-09 13:07:42.108,19.191921,0.19153613,1.9536686
2014-03-09 13:07:42.119,18.579004,1.8770541,3.6008794
2014-03-09 13:07:42.145,14.671668,6.742072,8.504205
2014-03-09 13:07:42.151,9.423578,5.707777,0.15322891
2014-03-09 13:07:42.169,12.373235,0.11492168,-4.4436383
2014-03-09 13:07:42.190,9.5385,-2.2984335,5.2863975
2014-03-09 13:07:42.200,-5.746084,2.4516625,3.064578
2014-03-09 13:07:42.222,-2.528277,-17.391481,4.3287168
2014-03-09 13:07:42.241,18.08101,-13.062764,-0.91937345
2014-03-09 13:07:42.251,1.2641385,7.0102224,-2.030283
2014-03-09 13:07:42.269,5.363012,3.3327289,4.1371803
2014-03-09 13:07:42.280,1.2641385,18.732235,3.5625722
2014-03-09 13:07:42.300,18.464083,19.88145,4.4819455
2014-03-09 13:07:42.310,18.50239,7.1634517,3.9839516
2014-03-09 13:07:42.329,10.764331,-3.0262709,-3.371036
2014-03-09 13:07:42.349,1.8387469,-8.0445175,-13.292608
2014-03-09 13:07:42.360,2.681506,-6.588843,5.401319
2014-03-09 13:07:42.380,5.2480903,7.3166804,19.6133
2014-03-09 13:07:42.391,6.435614,14.097059,19.6133
2014-03-09 13:07:42.410,8.121132,10.764331,16.127342
2014-03-09 13:07:42.421,6.205771,5.056554,10.113108
2014-03-09 13:07:42.441,2.336741,-1.0342951,9.5385
2014-03-09 13:07:42.460,-0.6512229,-3.7541082,9.500193
2014-03-09 13:07:42.470,-1.3024458,-2.2601264,9.500193
2014-03-09 13:07:42.503,-1.3024458,-0.5363012,10.304645
2014-03-09 13:07:42.504,-1.9536686,0.0,9.691729
2014-03-09 13:07:42.527,-3.4859576,0.34476504,8.121132
2014-03-09 13:07:42.552,-5.133168,0.80445176,7.1251445
2014-03-09 13:07:42.556,-10.0748005,1.9536686,4.3287168
2014-03-09 13:07:42.568,-5.2863975,3.5242648,3.7924154
2014-03-09 13:07:42.578,-2.030283,2.336741,3.0262709
2014-03-09 13:07:42.599,-3.9073372,2.183512,0.49799395
2014-03-09 13:07:42.619,-4.711789,1.2258313,2.183512
2014-03-09 13:07:42.628,-4.596867,0.34476504,6.167464
2014-03-09 13:07:42.649,-3.3327289,2.0685902,10.228029
2014-03-09 13:07:42.659,-3.715801,1.8004397,9.768343
2014-03-09 13:07:42.679,-3.7541082,1.6089035,7.6614456
2014-03-09 13:07:42.693,-3.4093432,2.873042,8.082825
2014-03-09 13:07:42.711,-3.6008794,2.719813,8.312668
2014-03-09 13:07:42.730,-4.405331,0.9576807,4.9799395
2014-03-09 13:07:42.741,-4.367024,0.2681506,5.2480903
2014-03-09 13:07:42.759,0.2681506,-1.3790601,8.772355
2014-03-09 13:07:42.769,0.4213795,-2.2601264,9.653421
2014-03-09 13:07:42.789,-0.91937345,-0.61291564,7.3166804
2014-03-09 13:07:42.808,0.38307226,0.91937345,6.3206925
2014-03-09 13:07:42.819,1.8004397,1.9919758,8.197746
2014-03-09 13:07:42.842,-0.9959879,1.685518,6.397307
2014-03-09 13:07:42.849,-2.4516625,2.4516625,8.082825
2014-03-09 13:07:42.868,-1.3024458,1.9536686,15.74427
2014-03-09 13:07:42.892,-0.9576807,1.0726024,10.304645
2014-03-09 13:07:42.900,-0.30645782,0.2681506,6.7803793
2014-03-09 13:07:42.920,-1.1875241,1.3024458,8.619126
2014-03-09 13:07:42.930,-0.30645782,2.7964275,10.840945
2014-03-09 13:07:42.949,1.0726024,-0.9959879,9.921572
2014-03-09 13:07:42.960,0.61291564,1.2258313,9.193734
2014-03-09 13:07:42.981,0.22984336,3.6008794,8.848969
2014-03-09 13:07:43.000,0.61291564,2.0685902,9.040505
2014-03-09 13:07:43.010,1.7621324,-0.38307226,8.810662
2014-03-09 13:07:43.029,0.7278373,-0.2681506,11.032481
2014-03-09 13:07:43.041,0.038307227,-0.34476504,11.224017
2014-03-09 13:07:43.060,-0.6512229,0.22984336,9.691729
2014-03-09 13:07:43.081,-1.4939818,2.1452048,8.465898
2014-03-09 13:07:43.095,-0.076614454,-0.15322891,7.201759
2014-03-09 13:07:43.110,-0.30645782,-1.2258313,10.534488
2014-03-09 13:07:43.120,-0.49799395,-0.6512229,12.603078
2014-03-09 13:07:43.141,-0.076614454,-1.4556746,12.334928
2014-03-09 13:07:43.321,-1.3790601,-0.30645782,9.653421
2014-03-09 13:07:43.348,-1.8387469,-0.076614454,9.040505
2014-03-09 13:07:43.361,-0.61291564,-0.9576807,10.266336
2014-03-09 13:07:43.361,-0.2681506,-1.7621324,11.032481
2014-03-09 13:07:43.368,-1.0726024,0.5363012,9.921572
2014-03-09 13:07:43.374,-1.7238252,0.2681506,8.42759
2014-03-09 13:07:43.384,-2.2601264,0.30645782,6.4739213
2014-03-09 13:07:43.391,-2.0685902,0.45968673,5.094861
2014-03-09 13:07:43.392,-1.0342951,-1.2258313,5.899313
2014-03-09 13:07:43.399,0.91937345,-3.2561142,8.121132
2014-03-09 13:07:43.404,1.7621324,-4.2521024,10.036493
2014-03-09 13:07:43.412,2.3750482,-2.9113493,10.342952
2014-03-09 13:07:43.412,1.4939818,-1.9919758,10.0748005
2014-03-09 13:07:43.415,0.7661445,-1.7238252,8.274361
2014-03-09 13:07:43.424,0.8810662,-2.1452048,7.3549876
2014-03-09 13:07:43.430,2.2218192,-2.1068976,9.078813
