Date,accelX-gX(m/s^2),accelY-gY(m/s^2),accelZ-gZ(m/s^2)
2014-03-09 15:36:07.343,-4.4436383,4.175488,6.742072
2014-03-09 15:36:07.363,-2.6431987,3.9073372,9.80665
2014-03-09 15:36:07.383,-2.183512,3.5242648,8.619126
2014-03-09 15:36:07.403,-2.3750482,3.064578,7.8912888
2014-03-09 15:36:07.423,-2.3750482,2.6431987,8.925584
2014-03-09 15:36:07.444,-3.371036,1.6089035,8.350976
2014-03-09 15:36:07.463,-3.7924154,1.5705963,8.159439
2014-03-09 15:36:07.483,-3.7541082,1.8387469,8.695741
2014-03-09 15:36:07.503,-3.371036,1.9153614,9.040505
2014-03-09 15:36:07.524,-2.7581203,1.7621324,7.5465236
2014-03-09 15:36:07.545,-2.7964275,2.183512,7.1634517
2014-03-09 15:36:07.564,-3.1028855,3.1794999,7.929596
2014-03-09 15:36:07.583,-3.2944214,3.7541082,9.193734
2014-03-09 15:36:07.604,-2.7964275,2.566584,9.040505
2014-03-09 15:36:07.625,-2.834735,2.1068976,8.389283
2014-03-09 15:36:07.643,-3.1411927,2.1452048,7.699753
2014-03-09 15:36:07.664,-3.217807,2.4899697,7.8146744
2014-03-09 15:36:07.683,-3.1411927,2.719813,8.274361
2014-03-09 15:36:07.704,-3.1411927,2.336741,8.350976
2014-03-09 15:36:07.724,-3.1794999,2.183512,8.542512
2014-03-09 15:36:07.743,-3.064578,1.4939818,8.887277
2014-03-09 15:36:07.763,-3.064578,1.532289,8.772355
2014-03-09 15:36:07.783,-2.873042,1.7238252,8.504205
2014-03-09 15:36:07.806,-3.0262709,2.030283,8.389283
2014-03-09 15:36:07.824,-3.1794999,1.1109096,8.925584
2014-03-09 15:36:07.844,-2.9879637,0.842759,8.963891
2014-03-09 15:36:07.864,-2.566584,0.91937345,9.423578
2014-03-09 15:36:07.884,-1.9153614,1.0342951,9.653421
2014-03-09 15:36:07.904,-1.9919758,0.9576807,9.998186
2014-03-09 15:36:07.936,-2.336741,1.4939818,10.342952
2014-03-09 15:36:07.948,-2.1068976,0.9576807,9.653421
2014-03-09 15:36:07.970,-1.9153614,0.7661445,8.772355
2014-03-09 15:36:07.985,-1.685518,0.9959879,8.810662
2014-03-09 15:36:08.005,-1.4939818,0.91937345,9.155427
2014-03-09 15:36:08.026,-1.1875241,1.2641385,9.346964
2014-03-09 15:36:08.044,-0.842759,1.1109096,8.963891
2014-03-09 15:36:08.064,-1.3790601,0.842759,8.312668
2014-03-09 15:36:08.086,-1.3024458,0.80445176,8.350976
2014-03-09 15:36:08.111,-0.9576807,0.9576807,8.580819
2014-03-09 15:36:08.123,-0.7661445,1.0342951,8.887277
2014-03-09 15:36:08.143,-0.45968673,1.0342951,8.42759
2014-03-09 15:36:08.163,-0.38307226,0.91937345,7.967903
2014-03-09 15:36:08.183,-0.15322891,0.61291564,7.776367
2014-03-09 15:36:08.203,0.2681506,-0.45968673,8.887277
2014-03-09 15:36:08.230,0.61291564,-0.842759,9.80665
2014-03-09 15:36:08.246,0.9959879,-0.8810662,10.113108
2014-03-09 15:36:08.266,1.4173675,-0.7661445,9.461885
2014-03-09 15:36:08.287,2.528277,-0.5363012,7.967903
2014-03-09 15:36:08.318,3.2561142,-0.038307227,7.8529816
2014-03-09 15:36:08.324,3.9073372,-0.38307226,8.236053
2014-03-09 15:36:08.343,4.098873,-0.7661445,8.197746
2014-03-09 15:36:08.368,4.1371803,-1.2258313,7.6231384
2014-03-09 15:36:08.384,4.4819455,-1.0726024,6.7803793
2014-03-09 15:36:08.407,5.2480903,-0.6512229,6.742072
2014-03-09 15:36:08.430,5.8226986,-0.5363012,7.5082164
2014-03-09 15:36:08.444,5.66947,-2.030283,7.776367
2014-03-09 15:36:08.468,5.094861,-2.6431987,7.1251445
2014-03-09 15:36:08.494,5.133168,-3.3327289,5.171476
2014-03-09 15:36:08.526,6.6271505,-4.5202527,5.8226986
2014-03-09 15:36:08.549,7.0102224,-5.631162,6.7803793
2014-03-09 15:36:08.568,6.742072,-7.73806,7.393295
2014-03-09 15:36:08.603,6.3206925,-8.159439,6.0525417
2014-03-09 15:36:08.624,6.895301,-8.00621,5.2480903
2014-03-09 15:36:08.658,7.469909,-8.082825,5.056554
2014-03-09 15:36:08.666,8.159439,-8.350976,6.588843
2014-03-09 15:36:08.684,8.197746,-8.772355,6.8569937
2014-03-09 15:36:08.704,7.929596,-9.155427,6.6271505
2014-03-09 15:36:08.730,7.6231384,-9.5385,6.2823853
2014-03-09 15:36:08.760,7.240066,-9.423578,6.090849
2014-03-09 15:36:08.770,7.3549876,-9.232041,6.4739213
2014-03-09 15:36:08.791,7.086837,-9.653421,6.5122285
2014-03-09 15:36:08.823,6.205771,-9.232041,6.5505357
2014-03-09 15:36:08.847,5.707777,-8.350976,6.703765
2014-03-09 15:36:08.864,5.439626,-7.5082164,6.6654577
2014-03-09 15:36:08.874,5.209783,-6.703765,6.6271505
2014-03-09 15:36:08.894,5.209783,-6.0525417,7.0102224
2014-03-09 15:36:08.905,5.2480903,-5.363012,7.2783732
2014-03-09 15:36:08.926,5.133168,-4.6351743,7.469909
2014-03-09 15:36:08.935,5.056554,-3.7541082,7.469909
2014-03-09 15:36:08.957,5.056554,-3.0262709,7.6614456
2014-03-09 15:36:08.976,5.0182467,-2.7964275,8.0445175
2014-03-09 15:36:08.988,4.596867,-2.7581203,8.274361
2014-03-09 15:36:09.019,4.3287168,-2.719813,8.542512
2014-03-09 15:36:09.019,4.098873,-2.6431987,8.42759
2014-03-09 15:36:09.033,3.9839516,-2.4899697,8.42759
2014-03-09 15:36:09.047,3.9073372,-2.3750482,8.542512
2014-03-09 15:36:09.066,3.7924154,-2.1452048,8.887277
2014-03-09 15:36:09.084,3.5625722,-2.1452048,9.078813
2014-03-09 15:36:09.093,3.5625722,-2.566584,9.002198
2014-03-09 15:36:09.109,3.715801,-2.9113493,8.6574335
2014-03-09 15:36:09.125,3.86903,-2.3750482,8.734048
2014-03-09 15:36:09.144,3.9456444,-1.7238252,8.772355
2014-03-09 15:36:09.164,4.0222588,-1.1492168,8.810662
2014-03-09 15:36:09.174,4.711789,-1.340753,9.078813
2014-03-09 15:36:09.195,5.401319,-1.9536686,8.772355
2014-03-09 15:36:09.205,6.2823853,-2.4133554,8.00621
2014-03-09 15:36:09.235,7.201759,-3.0262709,7.8529816
2014-03-09 15:36:09.271,7.73806,-3.0262709,8.0445175
2014-03-09 15:36:09.282,8.274361,-3.2561142,8.580819
2014-03-09 15:36:09.284,8.42759,-3.2944214,9.346964
2014-03-09 15:36:09.287,8.121132,-2.4899697,9.768343
2014-03-09 15:36:09.317,8.082825,-2.336741,9.653421
2014-03-09 15:36:09.328,8.236053,-2.566584,8.580819
2014-03-09 15:36:09.338,8.542512,-2.681506,7.5848308
2014-03-09 15:36:09.353,9.040505,-2.2218192,7.5465236
2014-03-09 15:36:09.365,9.653421,-1.4939818,7.8529816
2014-03-09 15:36:09.383,10.381259,-0.9576807,7.776367
2014-03-09 15:36:09.393,10.572795,-0.6512229,7.393295
2014-03-09 15:36:09.413,10.572795,-0.34476504,6.8569937
2014-03-09 15:36:09.433,10.91756,-0.6512229,6.435614
2014-03-09 15:36:09.443,11.33894,0.0,5.9759274
2014-03-09 15:36:09.463,11.645397,0.15322891,5.631162
2014-03-09 15:36:09.473,11.262324,-0.11492168,5.094861
2014-03-09 15:36:09.493,10.726024,-0.45968673,4.55856
2014-03-09 15:36:09.517,10.6877165,-1.1875241,4.4819455
2014-03-09 15:36:09.524,11.147403,-1.5705963,4.1371803
2014-03-09 15:36:09.543,11.722012,-1.7621324,3.715801
2014-03-09 15:36:09.554,11.722012,-1.5705963,2.9113493
2014-03-09 15:36:09.581,11.262324,-1.3024458,2.3750482
2014-03-09 15:36:09.597,10.496181,-1.6089035,2.4516625
2014-03-09 15:36:09.607,10.151415,-2.336741,3.3327289
2014-03-09 15:36:09.619,10.036493,-2.834735,4.55856
2014-03-09 15:36:09.633,9.768343,-2.2984335,5.554548
2014-03-09 15:36:09.653,9.232041,-1.5705963,6.397307
2014-03-09 15:36:09.663,9.002198,-0.7278373,6.703765
2014-03-09 15:36:09.683,8.925584,-0.5746084,6.7803793
2014-03-09 15:36:09.703,8.734048,-0.45968673,6.895301
2014-03-09 15:36:09.713,8.580819,-0.38307226,7.1251445
2014-03-09 15:36:09.734,8.6574335,0.0,7.73806
2014-03-09 15:36:09.744,8.887277,0.5363012,8.619126
2014-03-09 15:36:09.775,9.5385,0.91937345,8.963891
2014-03-09 15:36:09.777,10.228029,0.842759,8.695741
2014-03-09 15:36:09.794,10.419566,0.4213795,7.967903
2014-03-09 15:36:09.814,10.496181,-0.4213795,7.5082164
2014-03-09 15:36:09.824,10.496181,-0.91937345,7.929596
2014-03-09 15:36:09.844,10.611102,-1.4556746,8.619126
2014-03-09 15:36:09.864,10.726024,-1.8387469,8.963891
2014-03-09 15:36:09.874,10.6877165,-1.9919758,9.346964
2014-03-09 15:36:09.893,10.534488,-1.8770541,9.308656
2014-03-09 15:36:09.904,10.0748005,-1.8387469,9.002198
2014-03-09 15:36:09.925,9.5385,-1.9536686,8.695741
2014-03-09 15:36:09.934,9.002198,-2.2984335,8.580819
2014-03-09 15:36:09.954,8.580819,-2.2218192,8.504205
2014-03-09 15:36:09.968,8.504205,-2.1452048,8.465898
2014-03-09 15:36:09.985,8.465898,-1.9536686,8.197746
2014-03-09 15:36:10.005,8.389283,-1.6472107,7.776367
2014-03-09 15:36:10.014,8.274361,-1.4173675,7.431602
2014-03-09 15:36:10.045,8.0445175,-1.340753,7.240066
2014-03-09 15:36:10.056,7.699753,-1.2258313,7.201759
2014-03-09 15:36:10.066,7.3549876,-1.2258313,7.1634517
2014-03-09 15:36:10.086,6.933608,-1.1109096,6.895301
2014-03-09 15:36:10.095,6.742072,-1.2258313,6.588843
2014-03-09 15:36:10.121,6.5505357,-1.4939818,6.205771
2014-03-09 15:36:10.130,6.167464,-1.3790601,5.746084
2014-03-09 15:36:10.145,6.129156,-1.4939818,5.746084
2014-03-09 15:36:10.166,6.0525417,-1.7621324,6.090849
2014-03-09 15:36:10.177,5.93762,-1.8004397,6.3206925
2014-03-09 15:36:10.194,5.9759274,-2.1068976,6.3589997
2014-03-09 15:36:10.205,5.93762,-2.2218192,6.205771
2014-03-09 15:36:10.226,6.0525417,-2.2601264,6.090849
2014-03-09 15:36:10.245,6.167464,-2.3750482,5.8226986
2014-03-09 15:36:10.255,6.244078,-2.4133554,5.592855
2014-03-09 15:36:10.286,6.3206925,-2.2984335,5.7843914
2014-03-09 15:36:10.288,6.5122285,-2.1452048,6.5505357
2014-03-09 15:36:10.305,6.742072,-2.183512,6.933608
2014-03-09 15:36:10.318,6.742072,-2.183512,6.895301
2014-03-09 15:36:10.333,6.703765,-2.4133554,6.6271505
2014-03-09 15:36:10.353,6.588843,-2.566584,6.129156
2014-03-09 15:36:10.367,6.5505357,-2.4516625,5.8226986
2014-03-09 15:36:10.384,6.703765,-2.4899697,6.0142345
2014-03-09 15:36:10.394,6.8569937,-2.6048915,6.2823853
2014-03-09 15:36:10.417,6.9719152,-2.719813,6.5505357
2014-03-09 15:36:10.433,7.1634517,-2.834735,6.742072
2014-03-09 15:36:10.444,7.201759,-2.9113493,6.703765
2014-03-09 15:36:10.464,7.3166804,-2.9113493,6.3206925
2014-03-09 15:36:10.473,7.393295,-2.9496565,5.8226986
2014-03-09 15:36:10.493,7.431602,-3.1028855,5.4779334
2014-03-09 15:36:10.517,7.469909,-3.1028855,5.5162406
2014-03-09 15:36:10.525,7.5848308,-2.873042,5.4779334
2014-03-09 15:36:10.545,7.776367,-2.4516625,5.554548
2014-03-09 15:36:10.554,8.00621,-2.1068976,5.4779334
2014-03-09 15:36:10.574,7.8529816,-1.9153614,5.056554
2014-03-09 15:36:10.594,7.5848308,-1.9536686,4.6351743
2014-03-09 15:36:10.606,7.393295,-2.1452048,4.55856
2014-03-09 15:36:10.627,7.201759,-2.1452048,4.865018
2014-03-09 15:36:10.634,7.201759,-2.1452048,5.401319
2014-03-09 15:36:10.670,7.1251445,-1.8004397,5.4779334
2014-03-09 15:36:10.671,7.086837,-1.532289,5.3247046
2014-03-09 15:36:10.684,6.9719152,-1.5705963,5.171476
2014-03-09 15:36:10.705,6.7803793,-1.8387469,5.0182467
2014-03-09 15:36:10.713,6.5122285,-2.1068976,5.094861
2014-03-09 15:36:10.733,6.435614,-2.183512,5.439626
2014-03-09 15:36:10.744,6.3589997,-2.1452048,5.93762
2014-03-09 15:36:10.764,6.3589997,-2.0685902,6.205771
2014-03-09 15:36:10.785,6.397307,-2.030283,6.435614
2014-03-09 15:36:10.793,6.435614,-2.1452048,6.5122285
2014-03-09 15:36:10.813,6.397307,-2.2601264,6.5505357
2014-03-09 15:36:10.823,6.3589997,-2.528277,6.7803793
2014-03-09 15:36:10.843,6.397307,-2.7581203,7.1251445
2014-03-09 15:36:10.853,6.435614,-2.9496565,7.469909
2014-03-09 15:36:10.874,6.5505357,-3.064578,7.8912888
2014-03-09 15:36:10.893,6.742072,-3.217807,7.967903
2014-03-09 15:36:10.903,6.8186865,-3.371036,7.73806
2014-03-09 15:36:10.930,6.742072,-3.4859576,7.5848308
2014-03-09 15:36:10.934,6.6654577,-3.6008794,7.5848308
2014-03-09 15:36:10.954,6.7803793,-3.7541082,7.776367
2014-03-09 15:36:10.975,7.0102224,-3.6774938,7.967903
2014-03-09 15:36:10.986,7.2783732,-3.4476504,7.8529816
2014-03-09 15:36:11.006,7.5465236,-3.2944214,7.431602
2014-03-09 15:36:11.017,7.699753,-3.064578,7.0102224
2014-03-09 15:36:11.035,7.6614456,-2.7581203,6.7803793
2014-03-09 15:36:11.056,7.5465236,-2.528277,6.8186865
2014-03-09 15:36:11.065,7.469909,-2.2601264,6.7803793
2014-03-09 15:36:11.085,7.5465236,-2.183512,6.397307
2014-03-09 15:36:11.095,7.6614456,-2.183512,5.861006
2014-03-09 15:36:11.115,7.73806,-2.2601264,5.2863975
2014-03-09 15:36:11.127,7.73806,-2.3750482,4.8267107
2014-03-09 15:36:11.145,7.6231384,-2.2984335,4.596867
2014-03-09 15:36:11.165,7.699753,-2.336741,4.4819455
2014-03-09 15:36:11.175,7.73806,-2.2984335,4.673482
2014-03-09 15:36:11.194,7.776367,-2.1452048,4.865018
2014-03-09 15:36:11.205,7.699753,-2.1452048,4.7884035
2014-03-09 15:36:11.238,7.699753,-2.1452048,4.55856
2014-03-09 15:36:11.241,7.8146744,-2.0685902,4.4436383
2014-03-09 15:36:11.261,7.8529816,-2.1452048,4.405331
2014-03-09 15:36:11.275,7.8146744,-2.3750482,4.2521024
2014-03-09 15:36:11.285,7.8146744,-2.4516625,4.0222588
2014-03-09 15:36:11.305,7.8912888,-2.566584,3.6774938
2014-03-09 15:36:11.319,7.967903,-2.6048915,3.6008794
2014-03-09 15:36:11.333,8.00621,-2.6048915,3.5625722
2014-03-09 15:36:11.353,7.929596,-2.566584,3.5242648
2014-03-09 15:36:11.368,7.929596,-2.3750482,3.5625722
2014-03-09 15:36:11.384,8.0445175,-2.2218192,3.86903
2014-03-09 15:36:11.394,8.121132,-2.183512,4.213795
2014-03-09 15:36:11.414,8.159439,-2.336741,4.3287168
2014-03-09 15:36:11.427,8.197746,-2.336741,4.2904096
2014-03-09 15:36:11.444,8.236053,-2.3750482,4.213795
2014-03-09 15:36:11.464,8.274361,-2.183512,4.2904096
2014-03-09 15:36:11.474,8.274361,-1.9919758,4.405331
2014-03-09 15:36:11.494,8.197746,-1.8387469,4.2904096
2014-03-09 15:36:11.517,8.274361,-1.8387469,4.060566
2014-03-09 15:36:11.524,8.389283,-2.1452048,3.9073372
2014-03-09 15:36:11.537,8.504205,-2.528277,3.9073372
2014-03-09 15:36:11.553,8.6574335,-2.834735,4.098873
2014-03-09 15:36:11.574,8.619126,-2.9113493,4.596867
2014-03-09 15:36:11.593,8.542512,-3.064578,5.133168
2014-03-09 15:36:11.604,8.236053,-3.1411927,5.401319
2014-03-09 15:36:11.619,7.929596,-3.1794999,5.5162406
2014-03-09 15:36:11.634,7.5465236,-3.1794999,5.631162
2014-03-09 15:36:11.654,7.086837,-2.9113493,5.861006
2014-03-09 15:36:11.665,7.0102224,-2.9496565,6.205771
2014-03-09 15:36:11.684,7.201759,-3.3327289,6.6271505
2014-03-09 15:36:11.704,7.1634517,-3.4859576,6.7803793
2014-03-09 15:36:11.714,7.086837,-3.4476504,6.933608
2014-03-09 15:36:11.745,7.1634517,-3.2944214,7.3166804
2014-03-09 15:36:11.748,7.393295,-3.1794999,7.8529816
2014-03-09 15:36:11.768,7.5848308,-3.1794999,8.6574335
2014-03-09 15:36:11.799,7.469909,-3.0262709,9.193734
2014-03-09 15:36:11.819,7.2783732,-2.834735,9.461885
2014-03-09 15:36:11.838,7.240066,-2.7581203,9.461885
2014-03-09 15:36:11.838,7.5848308,-2.7964275,9.155427
2014-03-09 15:36:11.856,7.8529816,-2.7964275,8.580819
2014-03-09 15:36:11.858,7.8912888,-2.528277,8.0445175
2014-03-09 15:36:11.878,7.8146744,-2.4516625,7.73806
2014-03-09 15:36:11.898,7.73806,-2.3750482,7.5082164
2014-03-09 15:36:11.903,7.8146744,-2.3750482,7.240066
2014-03-09 15:36:11.924,7.8912888,-2.3750482,6.895301
2014-03-09 15:36:11.933,7.8529816,-2.0685902,6.6271505
2014-03-09 15:36:11.954,7.8146744,-1.8770541,6.5122285
2014-03-09 15:36:11.977,7.776367,-1.8770541,6.397307
2014-03-09 15:36:11.984,7.776367,-1.8770541,6.244078
2014-03-09 15:36:12.004,7.699753,-1.7621324,6.167464
2014-03-09 15:36:12.014,7.5465236,-1.532289,6.0525417
2014-03-09 15:36:12.033,7.2783732,-1.340753,5.899313
2014-03-09 15:36:12.053,7.2783732,-1.2641385,5.746084
2014-03-09 15:36:12.067,7.3549876,-1.3024458,5.592855
2014-03-09 15:36:12.084,7.3549876,-1.0342951,5.554548
2014-03-09 15:36:12.093,7.3549876,-0.80445176,5.439626
2014-03-09 15:36:12.119,7.5465236,-0.80445176,5.209783
2014-03-09 15:36:12.124,7.8529816,-0.8810662,4.9416323
2014-03-09 15:36:12.144,8.312668,-1.1875241,4.8267107
2014-03-09 15:36:12.164,8.734048,-1.3790601,4.711789
2014-03-09 15:36:12.178,8.887277,-1.6089035,4.55856
2014-03-09 15:36:12.194,8.772355,-1.685518,4.405331
2014-03-09 15:36:12.205,8.42759,-1.7238252,4.3287168
2014-03-09 15:36:12.225,8.159439,-1.8004397,4.4819455
2014-03-09 15:36:12.245,8.312668,-2.0685902,4.673482
2014-03-09 15:36:12.254,8.389283,-2.3750482,4.55856
2014-03-09 15:36:12.275,8.42759,-2.3750482,4.5202527
2014-03-09 15:36:12.286,8.619126,-2.4899697,4.6351743
2014-03-09 15:36:12.305,8.6574335,-2.566584,4.7884035
2014-03-09 15:36:12.314,8.197746,-1.9919758,5.094861
2014-03-09 15:36:12.348,7.8529816,-1.532289,5.363012
2014-03-09 15:36:12.362,7.6231384,-1.2641385,5.2863975
2014-03-09 15:36:12.368,7.3549876,-1.2258313,4.8267107
2014-03-09 15:36:12.386,7.3549876,-1.3024458,4.55856
2014-03-09 15:36:12.396,7.5848308,-1.4556746,4.55856
2014-03-09 15:36:12.418,7.929596,-1.685518,4.865018
2014-03-09 15:36:12.433,8.274361,-1.8004397,5.5162406
2014-03-09 15:36:12.448,8.504205,-1.7621324,5.9759274
2014-03-09 15:36:12.464,8.772355,-1.6472107,6.435614
2014-03-09 15:36:12.474,8.963891,-1.532289,6.8186865
2014-03-09 15:36:12.493,8.925584,-1.4556746,7.240066
2014-03-09 15:36:12.514,8.6574335,-1.4173675,7.5848308
2014-03-09 15:36:12.525,8.389283,-1.2258313,7.8912888
2014-03-09 15:36:12.544,8.197746,-0.9576807,8.0445175
2014-03-09 15:36:12.555,7.929596,-0.61291564,7.929596
2014-03-09 15:36:12.574,7.699753,-0.22984336,7.431602
2014-03-09 15:36:12.584,7.5465236,0.30645782,7.086837
2014-03-09 15:36:12.605,7.393295,0.61291564,6.742072
2014-03-09 15:36:12.617,7.240066,0.5746084,6.4739213
2014-03-09 15:36:12.633,7.1634517,0.4213795,6.167464
2014-03-09 15:36:12.685,7.086837,0.22984336,5.899313
2014-03-09 15:36:12.688,7.086837,0.038307227,5.66947
2014-03-09 15:36:12.691,7.3166804,-0.19153613,5.5162406
2014-03-09 15:36:12.699,7.5465236,-0.5363012,5.4779334
2014-03-09 15:36:12.717,7.6231384,-1.0342951,5.631162
2014-03-09 15:36:12.733,7.699753,-1.532289,5.7843914
2014-03-09 15:36:12.744,7.73806,-1.8387469,5.7843914
2014-03-09 15:36:12.764,7.8146744,-2.030283,5.899313
2014-03-09 15:36:12.773,7.8912888,-2.0685902,6.0525417
2014-03-09 15:36:12.793,7.8912888,-1.9919758,6.129156
2014-03-09 15:36:12.813,7.8529816,-1.8004397,6.205771
2014-03-09 15:36:12.824,7.8529816,-1.6472107,6.167464
2014-03-09 15:36:12.843,7.8146744,-1.532289,5.899313
2014-03-09 15:36:12.853,7.699753,-1.4556746,5.66947
2014-03-09 15:36:12.873,7.5465236,-1.4556746,5.592855
2014-03-09 15:36:12.893,7.393295,-1.4173675,5.66947
2014-03-09 15:36:12.903,7.393295,-1.4173675,5.861006
2014-03-09 15:36:12.917,7.393295,-1.2258313,6.3589997
2014-03-09 15:36:12.933,7.3549876,-1.0726024,7.086837
2014-03-09 15:36:12.953,7.3549876,-1.0726024,7.8529816
2014-03-09 15:36:12.989,7.3549876,-0.91937345,8.580819
2014-03-09 15:36:12.992,7.201759,-0.842759,9.232041
2014-03-09 15:36:13.005,7.0485296,-0.9959879,9.576807
2014-03-09 15:36:13.018,6.8186865,-1.0726024,9.615114
2014-03-09 15:36:13.033,6.5122285,-1.1875241,9.576807
2014-03-09 15:36:13.053,6.2823853,-1.1875241,9.921572
2014-03-09 15:36:13.068,6.3589997,-0.9959879,10.649409
2014-03-09 15:36:13.084,6.7803793,-0.6512229,11.60709
2014-03-09 15:36:13.094,6.8569937,-0.076614454,12.220005
2014-03-09 15:36:13.114,6.588843,0.0,12.5264635
2014-03-09 15:36:13.125,6.435614,-0.4213795,12.871228
2014-03-09 15:36:13.145,6.205771,-0.5746084,12.947843
2014-03-09 15:36:13.167,6.205771,-0.61291564,13.369223
2014-03-09 15:36:13.177,6.703765,-0.19153613,14.748282
2014-03-09 15:36:13.194,7.086837,-0.076614454,16.587029
2014-03-09 15:36:13.206,7.201759,-0.45968673,17.851168
2014-03-09 15:36:13.227,6.6271505,-1.340753,17.429789
2014-03-09 15:36:13.252,6.129156,-2.2218192,15.820885
2014-03-09 15:36:13.265,6.0525417,-2.4899697,14.135366
2014-03-09 15:36:13.277,6.2823853,-2.2601264,12.909535
2014-03-09 15:36:13.286,6.7803793,-1.8004397,11.836933
2014-03-09 15:36:13.307,7.1634517,-1.4173675,11.109096
2014-03-09 15:36:13.317,7.086837,-1.3024458,10.496181
2014-03-09 15:36:13.335,6.703765,-1.3790601,9.615114
2014-03-09 15:36:13.357,6.205771,-1.4556746,8.082825
2014-03-09 15:36:13.367,5.707777,-1.2258313,6.205771
2014-03-09 15:36:13.388,5.592855,-0.49799395,4.903325
2014-03-09 15:36:13.398,5.8226986,0.6512229,4.367024
2014-03-09 15:36:13.418,5.631162,1.340753,4.4819455
2014-03-09 15:36:13.430,4.9416323,1.0342951,4.2521024
2014-03-09 15:36:13.443,4.1371803,0.91937345,3.8307228
2014-03-09 15:36:13.468,3.6774938,1.2258313,3.2561142
2014-03-09 15:36:13.474,3.1794999,1.8770541,2.873042
2014-03-09 15:36:13.493,2.873042,2.336741,3.4859576
2014-03-09 15:36:13.514,2.6048915,2.7581203,4.1371803
2014-03-09 15:36:13.524,2.2984335,3.064578,5.363012
2014-03-09 15:36:13.540,1.7621324,3.4859576,5.899313
2014-03-09 15:36:13.554,1.340753,3.6774938,5.209783
2014-03-09 15:36:13.574,1.1492168,4.4436383,4.7500963
2014-03-09 15:36:13.584,1.3790601,4.9799395,5.93762
2014-03-09 15:36:13.604,1.4556746,5.209783,7.2783732
2014-03-09 15:36:13.625,1.1492168,5.209783,8.082825
2014-03-09 15:36:13.634,0.7278373,4.8267107,8.082825
2014-03-09 15:36:13.654,0.19153613,4.673482,8.00621
2014-03-09 15:36:13.664,-0.15322891,5.0182467,7.469909
2014-03-09 15:36:13.684,-0.2681506,5.3247046,6.703765
2014-03-09 15:36:13.704,-0.22984336,5.707777,6.3206925
2014-03-09 15:36:13.714,-0.076614454,6.090849,6.3589997
2014-03-09 15:36:13.734,0.15322891,6.3589997,6.9719152
2014-03-09 15:36:13.745,0.2681506,6.5122285,7.393295
2014-03-09 15:36:13.765,0.30645782,6.397307,7.6614456
2014-03-09 15:36:13.774,0.076614454,6.167464,7.3549876
2014-03-09 15:36:13.794,0.076614454,6.0142345,6.8186865
2014-03-09 15:36:13.817,0.15322891,6.090849,6.8569937
2014-03-09 15:36:13.823,0.2681506,6.244078,7.201759
2014-03-09 15:36:13.843,0.30645782,6.2823853,7.2783732
2014-03-09 15:36:13.853,0.38307226,6.435614,6.742072
2014-03-09 15:36:13.874,0.45968673,6.397307,6.588843
2014-03-09 15:36:13.893,0.38307226,6.3589997,6.7803793
2014-03-09 15:36:13.904,0.2681506,6.2823853,7.0102224
2014-03-09 15:36:13.925,0.30645782,6.129156,7.1251445
2014-03-09 15:36:13.934,0.5363012,6.205771,7.2783732
2014-03-09 15:36:13.954,0.6512229,6.435614,7.5082164
2014-03-09 15:36:13.967,0.6512229,6.5122285,7.6231384
2014-03-09 15:36:13.985,0.4213795,6.4739213,7.469909
2014-03-09 15:36:14.005,0.19153613,6.435614,7.2783732
2014-03-09 15:36:14.016,0.038307227,6.5122285,7.240066
2014-03-09 15:36:14.035,-0.076614454,6.5505357,7.2783732
2014-03-09 15:36:14.046,0.038307227,6.8186865,7.3166804
2014-03-09 15:36:14.065,0.15322891,7.086837,7.1634517
2014-03-09 15:36:14.086,0.11492168,7.0485296,7.086837
2014-03-09 15:36:14.097,0.0,6.7803793,7.1251445
2014-03-09 15:36:14.115,-0.11492168,6.588843,7.1251445
2014-03-09 15:36:14.148,-0.076614454,6.5505357,7.3166804
2014-03-09 15:36:14.160,0.076614454,6.588843,7.393295
2014-03-09 15:36:14.170,0.22984336,6.703765,7.393295
2014-03-09 15:36:14.177,0.38307226,6.933608,7.1634517
2014-03-09 15:36:14.196,0.38307226,6.9719152,6.588843
2014-03-09 15:36:14.205,0.2681506,6.8186865,6.129156
2014-03-09 15:36:14.225,0.15322891,6.742072,6.090849
2014-03-09 15:36:14.257,0.038307227,6.588843,6.703765
2014-03-09 15:36:14.260,0.19153613,6.397307,7.3166804
2014-03-09 15:36:14.277,0.30645782,6.5505357,7.201759
2014-03-09 15:36:14.305,0.30645782,6.9719152,6.6271505
2014-03-09 15:36:14.325,0.30645782,7.201759,6.0525417
2014-03-09 15:36:14.328,0.15322891,7.1634517,6.090849
2014-03-09 15:36:14.334,-0.038307227,7.0485296,6.3589997
2014-03-09 15:36:14.354,-0.11492168,7.0102224,6.9719152
2014-03-09 15:36:14.364,0.15322891,6.7803793,7.469909
2014-03-09 15:36:14.389,0.38307226,6.6271505,7.086837
2014-03-09 15:36:14.394,0.49799395,6.933608,6.397307
2014-03-09 15:36:14.416,0.49799395,7.086837,6.895301
2014-03-09 15:36:14.435,0.38307226,6.703765,8.350976
2014-03-09 15:36:14.444,1.3024458,5.707777,7.699753
2014-03-09 15:36:14.464,1.340753,5.592855,7.431602
2014-03-09 15:36:14.475,0.49799395,6.397307,6.7803793
2014-03-09 15:36:14.494,1.9536686,5.3247046,5.056554
2014-03-09 15:36:14.515,1.8770541,5.9759274,7.5848308
2014-03-09 15:36:14.525,1.6089035,5.746084,8.963891
2014-03-09 15:36:14.544,2.0685902,3.6774938,10.802638
2014-03-09 15:36:14.555,3.6008794,3.4093432,9.921572
2014-03-09 15:36:14.575,3.9839516,4.4436383,8.695741
2014-03-09 15:36:14.584,3.371036,3.9073372,7.5848308
2014-03-09 15:36:14.604,0.8810662,4.060566,6.703765
2014-03-09 15:36:14.624,-1.7621324,6.2823853,10.113108
2014-03-09 15:36:14.635,1.340753,6.129156,12.679692
2014-03-09 15:36:14.654,2.2601264,2.9496565,9.998186
2014-03-09 15:36:14.664,1.1875241,3.4093432,9.385271
2014-03-09 15:36:14.684,1.1875241,4.367024,9.232041
2014-03-09 15:36:14.704,0.6512229,3.7924154,8.350976
2014-03-09 15:36:14.718,-0.19153613,1.8770541,7.929596
2014-03-09 15:36:14.735,-0.91937345,1.9536686,8.963891
2014-03-09 15:36:14.748,-0.45968673,3.371036,8.963891
2014-03-09 15:36:14.765,-0.15322891,4.6351743,9.5385
2014-03-09 15:36:14.776,0.22984336,5.66947,9.461885
2014-03-09 15:36:14.796,0.2681506,5.861006,8.925584
2014-03-09 15:36:14.815,0.22984336,5.5162406,8.6574335
2014-03-09 15:36:14.827,0.6512229,4.0222588,8.695741
2014-03-09 15:36:14.845,1.340753,3.3327289,9.193734
2014-03-09 15:36:14.856,1.6472107,3.4476504,9.461885
2014-03-09 15:36:14.881,1.340753,4.6351743,9.002198
2014-03-09 15:36:14.901,0.91937345,6.4739213,8.350976
2014-03-09 15:36:14.903,0.8810662,6.3589997,7.73806
2014-03-09 15:36:14.916,1.2258313,5.401319,7.8529816
2014-03-09 15:36:14.933,1.8387469,4.1371803,8.389283
2014-03-09 15:36:14.954,2.1452048,3.9073372,8.963891
2014-03-09 15:36:14.990,1.9153614,4.865018,8.963891
2014-03-09 15:36:15.000,1.685518,5.8226986,8.236053
2014-03-09 15:36:15.011,1.1492168,6.244078,7.5465236
2014-03-09 15:36:15.014,1.1492168,5.363012,7.3166804
2014-03-09 15:36:15.034,1.5705963,4.175488,7.73806
2014-03-09 15:36:15.043,1.8770541,3.6391866,8.42759
2014-03-09 15:36:15.064,1.9153614,4.1371803,8.580819
2014-03-09 15:36:15.084,1.2641385,6.2823853,8.695741
2014-03-09 15:36:15.094,1.5705963,6.0525417,7.8912888
2014-03-09 15:36:15.117,1.3024458,4.4436383,7.393295
2014-03-09 15:36:15.130,1.1109096,3.217807,7.699753
2014-03-09 15:36:15.145,1.4556746,3.1028855,8.619126
2014-03-09 15:36:15.166,1.2641385,3.371036,9.500193
2014-03-09 15:36:15.176,0.5746084,5.094861,8.504205
2014-03-09 15:36:15.194,0.49799395,5.2863975,7.469909
2014-03-09 15:36:15.206,0.9576807,3.6774938,8.274361
2014-03-09 15:36:15.227,0.9576807,2.183512,9.040505
2014-03-09 15:36:15.244,0.61291564,2.7964275,9.270349
2014-03-09 15:36:15.256,0.49799395,4.2904096,9.385271
2014-03-09 15:36:15.273,0.61291564,4.9799395,9.576807
2014-03-09 15:36:15.284,1.2258313,2.9496565,9.615114
2014-03-09 15:36:15.304,1.4173675,2.528277,9.576807
2014-03-09 15:36:15.313,1.1492168,3.217807,9.155427
2014-03-09 15:36:15.338,1.0726024,2.9879637,9.270349
2014-03-09 15:36:15.355,0.9576807,3.2944214,9.040505
2014-03-09 15:36:15.372,1.0726024,4.060566,8.312668
2014-03-09 15:36:15.381,1.685518,3.715801,7.8146744
2014-03-09 15:36:15.393,2.1068976,3.5242648,7.3166804
2014-03-09 15:36:15.413,2.2218192,2.9496565,6.0525417
2014-03-09 15:36:15.435,2.2218192,2.528277,5.439626
2014-03-09 15:36:15.481,3.2944214,1.6472107,5.2480903
2014-03-09 15:36:15.555,3.1794999,1.7238252,5.707777
2014-03-09 15:36:15.608,2.4899697,1.6472107,5.899313
2014-03-09 15:36:15.615,2.1452048,0.9959879,4.7500963
2014-03-09 15:36:15.616,1.7621324,0.842759,3.6774938
2014-03-09 15:36:15.625,1.9919758,0.5363012,3.715801
2014-03-09 15:36:15.632,4.3287168,0.038307227,4.673482
2014-03-09 15:36:15.637,6.397307,-1.1492168,6.3206925
2014-03-09 15:36:15.672,7.240066,-2.1452048,7.469909
2014-03-09 15:36:15.685,6.8569937,-2.183512,6.8569937
2014-03-09 15:36:15.686,6.5122285,-1.4173675,7.086837
2014-03-09 15:36:15.691,9.461885,-0.9576807,10.036493
2014-03-09 15:36:15.697,12.488156,0.9576807,14.326903
2014-03-09 15:36:15.706,10.764331,4.2521024,16.663643
2014-03-09 15:36:15.709,9.078813,5.9759274,16.931795
2014-03-09 15:36:15.715,6.8186865,7.929596,15.705963
2014-03-09 15:36:15.720,4.1371803,9.768343,11.836933
2014-03-09 15:36:15.725,3.8307228,9.768343,10.228029
2014-03-09 15:36:15.733,4.7500963,8.887277,8.695741
2014-03-09 15:36:15.744,4.6351743,10.840945,6.244078
2014-03-09 15:36:15.763,4.596867,13.599066,0.49799395
2014-03-09 15:36:15.773,5.094861,10.6877165,-3.371036
2014-03-09 15:36:15.793,1.5705963,4.6351743,1.532289
2014-03-09 15:36:15.813,4.4819455,2.336741,0.19153613
2014-03-09 15:36:15.824,7.5465236,0.9959879,-1.4556746
2014-03-09 15:36:15.843,11.530476,8.504205,-0.61291564
2014-03-09 15:36:15.853,11.722012,12.641385,-6.090849
2014-03-09 15:36:15.873,8.6574335,12.603078,-12.066776
2014-03-09 15:36:15.893,7.086837,5.93762,-6.588843
2014-03-09 15:36:15.903,6.5505357,2.2218192,-1.3790601
2014-03-09 15:36:15.926,9.270349,1.532289,3.7924154
2014-03-09 15:36:15.933,15.935806,5.899313,3.86903
2014-03-09 15:36:15.954,18.885464,13.062764,2.4516625
2014-03-09 15:36:15.966,17.621325,12.871228,3.4093432
2014-03-09 15:36:15.983,13.369223,13.867216,3.5625722
2014-03-09 15:36:16.003,9.615114,9.959879,2.4516625
2014-03-09 15:36:16.013,9.002198,5.133168,0.61291564
2014-03-09 15:36:16.034,8.887277,1.7621324,-0.8810662
2014-03-09 15:36:16.043,9.615114,1.9919758,-2.566584
2014-03-09 15:36:16.064,12.717999,11.60709,5.746084
2014-03-09 15:36:16.084,-1.4173675,6.3589997,2.6431987
2014-03-09 15:36:16.094,-1.8770541,-7.1251445,-3.4859576
2014-03-09 15:36:16.114,3.064578,-2.9879637,0.80445176
2014-03-09 15:36:16.125,4.673482,2.719813,-1.685518
2014-03-09 15:36:16.147,0.9959879,7.086837,-5.631162
2014-03-09 15:36:16.164,-3.1028855,6.435614,-4.673482
2014-03-09 15:36:16.175,-2.9113493,2.2601264,-5.171476
2014-03-09 15:36:16.194,0.15322891,1.0342951,-5.401319
2014-03-09 15:36:16.204,3.7924154,1.4556746,-3.9073372
2014-03-09 15:36:16.224,8.082825,5.363012,-1.9536686
2014-03-09 15:36:16.234,5.631162,12.909535,-0.9576807
2014-03-09 15:36:16.254,3.2944214,12.373235,0.5746084
2014-03-09 15:36:16.275,10.304645,10.611102,5.4779334
2014-03-09 15:36:16.284,14.326903,4.903325,7.0102224
2014-03-09 15:36:16.304,12.679692,10.6877165,-1.1875241
2014-03-09 15:36:16.315,14.978126,10.304645,0.38307226
2014-03-09 15:36:16.335,13.024457,12.947843,-1.4173675
2014-03-09 15:36:16.354,13.330915,12.258312,-2.2218192
2014-03-09 15:36:16.369,11.032481,5.094861,-0.38307226
2014-03-09 15:36:16.384,8.389283,0.0,-0.91937345
2014-03-09 15:36:16.394,12.603078,-1.5705963,2.873042
2014-03-09 15:36:16.414,18.119318,-4.213795,3.6774938
2014-03-09 15:36:16.427,16.74026,-1.3790601,-0.6512229
2014-03-09 15:36:16.444,13.369223,6.2823853,-6.6271505
2014-03-09 15:36:16.464,11.492168,7.6614456,-7.699753
2014-03-09 15:36:16.474,10.113108,5.592855,-4.175488
2014-03-09 15:36:16.494,10.457873,4.367024,-1.9536686
2014-03-09 15:36:16.513,10.496181,4.7884035,-1.9536686
2014-03-09 15:36:16.523,10.228029,5.7843914,-0.842759
2014-03-09 15:36:16.543,10.189722,8.734048,1.2258313
2014-03-09 15:36:16.554,7.5465236,10.151415,1.4939818
2014-03-09 15:36:16.582,5.592855,9.193734,-0.11492168
2014-03-09 15:36:16.583,4.175488,11.18571,-0.842759
2014-03-09 15:36:16.603,1.7238252,12.98615,-2.4133554
2014-03-09 15:36:16.623,0.19153613,14.709975,-3.86903
2014-03-09 15:36:16.634,-0.34476504,13.67568,-5.0182467
2014-03-09 15:36:16.654,0.45968673,11.109096,-8.504205
2014-03-09 15:36:16.664,-1.8387469,8.236053,-13.062764
2014-03-09 15:36:16.686,-5.707777,7.0485296,-9.193734
2014-03-09 15:36:16.697,-5.66947,11.722012,0.61291564
2014-03-09 15:36:16.716,-4.7500963,11.9135475,5.631162
2014-03-09 15:36:16.739,-1.2641385,10.151415,3.6008794
2014-03-09 15:36:16.750,-2.183512,3.4476504,1.2258313
2014-03-09 15:36:16.782,4.405331,0.842759,-2.183512
2014-03-09 15:36:16.783,10.955867,-2.6431987,-6.9719152
2014-03-09 15:36:16.794,12.181698,-6.3589997,-5.133168
2014-03-09 15:36:16.814,11.415554,-1.0342951,-4.6351743
2014-03-09 15:36:16.824,8.504205,8.00621,-4.367024
2014-03-09 15:36:16.844,13.40753,-2.873042,-7.393295
2014-03-09 15:36:16.854,15.820885,13.484144,-4.8267107
2014-03-09 15:36:16.875,14.748282,19.88145,2.9113493
2014-03-09 15:36:16.894,13.139379,19.804836,-3.1411927
2014-03-09 15:36:16.904,6.8186865,17.81286,-0.91937345
2014-03-09 15:36:16.927,5.899313,9.691729,-4.213795
2014-03-09 15:36:16.935,3.8307228,9.232041,-5.363012
2014-03-09 15:36:16.955,2.9879637,10.764331,-2.1452048
2014-03-09 15:36:16.976,2.0685902,13.67568,-1.4939818
2014-03-09 15:36:16.987,0.5363012,12.794614,-3.5242648
2014-03-09 15:36:17.004,-1.4173675,7.8529816,-5.3247046
2014-03-09 15:36:17.015,-3.9456444,-1.685518,-5.209783
2014-03-09 15:36:17.035,-0.8810662,2.566584,-1.9153614
2014-03-09 15:36:17.048,2.7964275,2.2218192,-1.9153614
2014-03-09 15:36:17.066,5.7843914,3.0262709,-2.0685902
2014-03-09 15:36:17.083,7.776367,4.2521024,-3.1028855
2014-03-09 15:36:17.093,9.308656,4.7884035,-3.3327289
2014-03-09 15:36:17.113,10.151415,4.0222588,-3.9073372
2014-03-09 15:36:17.123,11.990162,4.175488,-5.592855
2014-03-09 15:36:17.143,11.492168,4.367024,-5.439626
2014-03-09 15:36:17.163,7.201759,4.5202527,-2.4899697
2014-03-09 15:36:17.174,5.899313,3.5242648,-0.22984336
2014-03-09 15:36:17.194,5.8226986,1.2641385,-0.34476504
2014-03-09 15:36:17.203,9.232041,-0.7661445,-3.9839516
2014-03-09 15:36:17.227,12.564771,-2.834735,-9.423578
2014-03-09 15:36:17.235,12.756307,-3.9456444,-6.3589997
2014-03-09 15:36:17.255,17.621325,-1.7621324,-4.4436383
2014-03-09 15:36:17.276,16.85518,-7.3549876,-1.1492168
2014-03-09 15:36:17.286,7.1251445,-9.11712,-1.4556746
2014-03-09 15:36:17.304,5.363012,-9.193734,-4.3287168
2014-03-09 15:36:17.315,6.3206925,-9.308656,-4.5202527
2014-03-09 15:36:17.335,6.090849,-7.6614456,-2.336741
2014-03-09 15:36:17.355,5.592855,-6.2823853,-0.5363012
2014-03-09 15:36:17.368,5.899313,-5.171476,-1.6089035
2014-03-09 15:36:17.386,7.3166804,-3.4859576,-2.4133554
2014-03-09 15:36:17.396,8.734048,-3.1794999,-5.439626
2014-03-09 15:36:17.416,6.703765,-6.397307,-1.7238252
2014-03-09 15:36:17.434,6.3589997,-7.201759,-1.7238252
2014-03-09 15:36:17.443,5.93762,-5.554548,-3.5625722
2014-03-09 15:36:17.467,6.703765,-5.094861,-4.5202527
2014-03-09 15:36:17.475,10.457873,-5.861006,-4.3287168
2014-03-09 15:36:17.494,8.312668,-4.55856,-3.9456444
2014-03-09 15:36:17.503,6.3589997,-5.0182467,-3.1028855
2014-03-09 15:36:17.523,6.8569937,-5.592855,-2.2984335
2014-03-09 15:36:17.543,7.2783732,-5.8226986,-2.566584
2014-03-09 15:36:17.554,7.1251445,-5.861006,-2.681506
2014-03-09 15:36:17.574,6.0142345,-5.171476,-2.9113493
2014-03-09 15:36:17.583,5.7843914,-4.098873,-3.064578
2014-03-09 15:36:17.603,6.167464,-3.7924154,-3.3327289
2014-03-09 15:36:17.624,5.93762,-4.3287168,-3.0262709
2014-03-09 15:36:17.634,6.3589997,-5.5162406,-2.7964275
2014-03-09 15:36:17.654,6.8186865,-6.090849,-3.2561142
2014-03-09 15:36:17.663,7.0485296,-6.129156,-3.3327289
2014-03-09 15:36:17.683,7.431602,-6.167464,-2.834735
2014-03-09 15:36:17.703,7.776367,-5.707777,-2.9496565
2014-03-09 15:36:17.717,7.6231384,-4.9416323,-3.4093432
2014-03-09 15:36:17.749,6.895301,-4.903325,-3.2944214
2014-03-09 15:36:17.761,6.6654577,-5.133168,-2.4516625
2014-03-09 15:36:17.769,6.4739213,-5.2863975,-2.183512
2014-03-09 15:36:17.774,6.4739213,-5.861006,-2.2601264
2014-03-09 15:36:17.794,6.397307,-5.9759274,-3.4859576
2014-03-09 15:36:17.814,7.8146744,-5.7843914,-3.2561142
2014-03-09 15:36:17.823,8.236053,-5.363012,-3.0262709
2014-03-09 15:36:17.843,7.2783732,-5.209783,-3.2944214
2014-03-09 15:36:17.854,7.3549876,-6.090849,-3.1794999
2014-03-09 15:36:17.875,7.1251445,-5.899313,-3.5242648
2014-03-09 15:36:17.894,6.8569937,-5.66947,-2.9496565
2014-03-09 15:36:17.906,7.699753,-5.401319,-2.719813
2014-03-09 15:36:17.925,7.5848308,-4.596867,-2.873042
2014-03-09 15:36:17.935,7.1251445,-4.4819455,-2.681506
2014-03-09 15:36:17.955,6.8186865,-4.596867,-2.9496565
2014-03-09 15:36:17.976,6.703765,-4.865018,-2.4133554
2014-03-09 15:36:17.986,6.588843,-4.9799395,-3.217807
2014-03-09 15:36:18.004,6.703765,-4.711789,-2.9879637
2014-03-09 15:36:18.015,6.8569937,-5.0182467,-3.1794999
2014-03-09 15:36:18.035,7.5848308,-5.4779334,-2.9496565
2014-03-09 15:36:18.045,8.465898,-6.205771,-2.4516625
2014-03-09 15:36:18.064,8.504205,-6.3206925,-2.1068976
2014-03-09 15:36:18.084,7.393295,-5.66947,-2.566584
2014-03-09 15:36:18.095,6.6271505,-5.5162406,-3.1411927
2014-03-09 15:36:18.115,6.0525417,-5.5162406,-3.6774938
2014-03-09 15:36:18.127,6.435614,-5.056554,-3.86903
2014-03-09 15:36:18.144,7.0102224,-5.0182467,-3.5242648
2014-03-09 15:36:18.161,7.5848308,-5.746084,-3.3327289
2014-03-09 15:36:18.174,7.8529816,-5.7843914,-3.5242648
2014-03-09 15:36:18.194,7.431602,-4.7884035,-3.715801
2014-03-09 15:36:18.203,6.9719152,-4.9416323,-3.6008794
2014-03-09 15:36:18.223,7.393295,-5.401319,-3.5242648
2014-03-09 15:36:18.234,7.6231384,-5.554548,-3.371036
2014-03-09 15:36:18.254,7.393295,-5.5162406,-3.6391866
2014-03-09 15:36:18.278,6.895301,-5.401319,-3.715801
2014-03-09 15:36:18.283,6.8569937,-5.439626,-3.6391866
2014-03-09 15:36:18.303,7.0102224,-5.2863975,-3.2944214
2014-03-09 15:36:18.317,6.895301,-5.439626,-2.9496565
2014-03-09 15:36:18.335,6.8186865,-5.707777,-3.1794999
2014-03-09 15:36:18.355,6.3206925,-5.899313,-3.064578
2014-03-09 15:36:18.367,6.4739213,-5.899313,-3.2944214
2014-03-09 15:36:18.385,7.2783732,-5.707777,-3.6774938
2014-03-09 15:36:18.395,7.086837,-5.401319,-3.86903
2014-03-09 15:36:18.415,6.5505357,-5.4779334,-3.86903
2014-03-09 15:36:18.436,6.3589997,-5.171476,-3.8307228
2014-03-09 15:36:18.447,6.588843,-5.056554,-3.7924154
2014-03-09 15:36:18.465,6.8569937,-5.133168,-4.0222588
2014-03-09 15:36:18.476,7.240066,-5.171476,-4.0222588
2014-03-09 15:36:18.495,7.431602,-5.133168,-3.86903
2014-03-09 15:36:18.507,7.0485296,-5.171476,-3.6008794
2014-03-09 15:36:18.523,6.435614,-5.554548,-3.6391866
2014-03-09 15:36:18.543,6.0142345,-5.93762,-3.9073372
2014-03-09 15:36:18.554,6.205771,-5.707777,-3.8307228
2014-03-09 15:36:18.574,6.6654577,-5.554548,-3.6774938
2014-03-09 15:36:18.583,7.1634517,-5.707777,-3.4476504
2014-03-09 15:36:18.603,6.435614,-5.3247046,-3.86903
2014-03-09 15:36:18.617,6.8186865,-5.5162406,-4.213795
2014-03-09 15:36:18.636,6.8569937,-5.554548,-4.4819455
2014-03-09 15:36:18.655,6.6654577,-5.401319,-4.3287168
2014-03-09 15:36:18.667,6.5122285,-5.363012,-4.213795
2014-03-09 15:36:18.683,6.397307,-5.2863975,-4.213795
2014-03-09 15:36:18.706,6.5122285,-5.056554,-4.175488
2014-03-09 15:36:18.715,6.703765,-5.0182467,-4.1371803
2014-03-09 15:36:18.734,6.8569937,-5.0182467,-4.0222588
2014-03-09 15:36:18.743,6.8569937,-5.0182467,-4.060566
2014-03-09 15:36:18.763,6.933608,-5.3247046,-3.8307228
2014-03-09 15:36:18.774,6.4739213,-5.66947,-3.9839516
2014-03-09 15:36:18.794,6.397307,-5.746084,-4.213795
2014-03-09 15:36:18.818,6.4739213,-5.554548,-3.9456444
2014-03-09 15:36:18.830,6.9719152,-5.401319,-3.6391866
2014-03-09 15:36:18.845,6.933608,-5.439626,-3.4859576
2014-03-09 15:36:18.855,6.895301,-5.4779334,-3.4476504
2014-03-09 15:36:18.876,6.8569937,-5.4779334,-3.6008794
2014-03-09 15:36:18.895,6.5122285,-5.363012,-3.6008794
2014-03-09 15:36:18.907,6.244078,-5.2480903,-3.4859576
2014-03-09 15:36:18.925,6.2823853,-5.66947,-3.8307228
2014-03-09 15:36:18.935,6.742072,-5.4779334,-4.367024
2014-03-09 15:36:18.955,7.1251445,-5.133168,-4.3287168
2014-03-09 15:36:18.966,7.0485296,-4.9799395,-4.213795
2014-03-09 15:36:18.985,7.0485296,-4.9416323,-4.1371803
2014-03-09 15:36:19.004,6.7803793,-4.865018,-4.175488
2014-03-09 15:36:19.015,6.742072,-4.9416323,-4.5202527
2014-03-09 15:36:19.035,6.6654577,-4.711789,-4.7884035
2014-03-09 15:36:19.046,6.435614,-4.596867,-5.439626
2014-03-09 15:36:19.064,7.5465236,-4.4819455,-4.5202527
2014-03-09 15:36:19.084,6.6271505,-4.865018,-4.1371803
2014-03-09 15:36:19.095,6.5122285,-5.133168,-3.7924154
2014-03-09 15:36:19.115,5.9759274,-5.5162406,-3.7541082
2014-03-09 15:36:19.127,7.699753,-4.9799395,-3.6774938
2014-03-09 15:36:19.145,7.5082164,-4.55856,-4.367024
2014-03-09 15:36:19.164,7.5082164,-4.367024,-4.865018
2014-03-09 15:36:19.176,7.086837,-4.903325,-4.6351743
2014-03-09 15:36:19.195,6.5122285,-5.2480903,-4.4819455
2014-03-09 15:36:19.205,6.5122285,-5.0182467,-3.5242648
2014-03-09 15:36:19.239,6.5122285,-5.0182467,-3.6008794
2014-03-09 15:36:19.240,6.703765,-4.5202527,-3.7541082
2014-03-09 15:36:19.268,7.240066,-3.9073372,-4.175488
2014-03-09 15:36:19.271,7.73806,-3.7924154,-4.2521024
2014-03-09 15:36:19.287,7.469909,-4.7500963,-4.1371803
2014-03-09 15:36:19.304,7.1251445,-4.8267107,-3.6008794
2014-03-09 15:36:19.314,7.086837,-5.7843914,-3.1028855
2014-03-09 15:36:19.334,6.4739213,-6.2823853,-3.4859576
2014-03-09 15:36:19.354,6.090849,-5.861006,-3.86903
2014-03-09 15:36:19.363,6.6271505,-5.439626,-3.7924154
2014-03-09 15:36:19.383,6.7803793,-5.0182467,-3.9839516
2014-03-09 15:36:19.394,6.933608,-4.7500963,-4.0222588
2014-03-09 15:36:19.414,6.8569937,-4.8267107,-4.405331
2014-03-09 15:36:19.434,7.0485296,-4.6351743,-4.213795
2014-03-09 15:36:19.443,6.895301,-4.7500963,-4.367024
2014-03-09 15:36:19.463,6.895301,-4.9799395,-4.3287168
2014-03-09 15:36:19.475,7.0102224,-4.596867,-4.3287168
2014-03-09 15:36:19.494,7.201759,-4.4819455,-4.596867
2014-03-09 15:36:19.507,7.393295,-4.405331,-4.9799395
2014-03-09 15:36:19.526,6.9719152,-4.6351743,-4.711789
2014-03-09 15:36:19.545,6.8186865,-4.4436383,-4.3287168
2014-03-09 15:36:19.556,5.9759274,-4.2521024,-3.1411927
2014-03-09 15:36:19.576,7.73806,-4.9416323,-4.1371803
2014-03-09 15:36:19.588,7.929596,-4.405331,-3.6774938
2014-03-09 15:36:19.606,8.350976,-4.213795,-3.9839516
2014-03-09 15:36:19.623,8.0445175,-3.8307228,-4.367024
2014-03-09 15:36:19.633,7.431602,-4.2904096,-4.0222588
2014-03-09 15:36:19.654,6.8186865,-4.55856,-3.7924154
2014-03-09 15:36:19.663,6.895301,-4.2904096,-3.6008794
2014-03-09 15:36:19.683,6.8186865,-4.060566,-3.5242648
2014-03-09 15:36:19.703,7.1634517,-4.405331,-3.715801
2014-03-09 15:36:19.714,7.3166804,-4.711789,-3.7541082
2014-03-09 15:36:19.734,7.5465236,-5.0182467,-3.9073372
2014-03-09 15:36:19.743,7.73806,-4.9799395,-4.2521024
2014-03-09 15:36:19.763,7.8912888,-5.0182467,-4.367024
2014-03-09 15:36:19.775,7.6614456,-4.3287168,-4.175488
2014-03-09 15:36:19.794,6.7803793,-4.5202527,-3.371036
2014-03-09 15:36:19.814,6.244078,-4.55856,-3.2944214
2014-03-09 15:36:19.824,6.205771,-5.2863975,-3.86903
2014-03-09 15:36:19.843,6.933608,-6.0525417,-3.7541082
2014-03-09 15:36:19.857,7.201759,-5.209783,-3.8307228
2014-03-09 15:36:19.876,6.933608,-4.865018,-4.596867
2014-03-09 15:36:19.896,7.431602,-4.596867,-5.171476
2014-03-09 15:36:19.906,7.699753,-4.5202527,-5.209783
2014-03-09 15:36:19.925,7.8912888,-3.86903,-5.3247046
2014-03-09 15:36:19.935,7.5465236,-3.064578,-5.0182467
2014-03-09 15:36:19.955,6.7803793,-3.7924154,-4.6351743
2014-03-09 15:36:19.965,6.8186865,-4.2521024,-4.060566
2014-03-09 15:36:19.984,7.0485296,-4.213795,-3.9456444
2014-03-09 15:36:20.005,7.3166804,-4.2521024,-4.175488
2014-03-09 15:36:20.015,7.3166804,-4.367024,-4.175488
2014-03-09 15:36:20.035,7.3166804,-4.5202527,-3.9073372
2014-03-09 15:36:20.045,6.933608,-4.55856,-3.371036
2014-03-09 15:36:20.064,6.6271505,-4.865018,-3.4093432
2014-03-09 15:36:20.084,7.086837,-5.209783,-4.3287168
2014-03-09 15:36:20.095,7.393295,-5.133168,-4.405331
2014-03-09 15:36:20.115,7.73806,-4.4819455,-3.7924154
2014-03-09 15:36:20.127,7.6614456,-4.673482,-3.6774938
2014-03-09 15:36:20.144,7.1251445,-4.5202527,-4.175488
2014-03-09 15:36:20.177,8.274361,-3.9839516,-3.2944214
2014-03-09 15:36:20.178,8.00621,-5.401319,-0.30645782
2014-03-09 15:36:20.196,5.8226986,-5.9759274,-5.056554
2014-03-09 15:36:20.206,6.129156,-4.8267107,-6.3589997
2014-03-09 15:36:20.223,6.5505357,-5.363012,-6.244078
2014-03-09 15:36:20.234,6.3206925,-5.133168,-4.213795
2014-03-09 15:36:20.254,7.1251445,-5.0182467,-4.060566
2014-03-09 15:36:20.279,7.3166804,-4.865018,-3.6774938
2014-03-09 15:36:20.283,7.469909,-4.7500963,-3.9456444
2014-03-09 15:36:20.306,7.1634517,-4.711789,-4.213795
2014-03-09 15:36:20.315,5.2863975,-3.9073372,-4.9799395
2014-03-09 15:36:20.335,6.3206925,-4.55856,-5.171476
2014-03-09 15:36:20.355,6.8186865,-4.8267107,-5.209783
2014-03-09 15:36:20.366,8.121132,-4.4436383,-4.0222588
2014-03-09 15:36:20.385,6.397307,-3.7541082,-4.405331
2014-03-09 15:36:20.396,7.0102224,-4.9799395,-4.367024
2014-03-09 15:36:20.414,5.861006,-4.5202527,-4.7500963
2014-03-09 15:36:20.434,7.201759,-5.66947,-3.5625722
2014-03-09 15:36:20.443,6.7803793,-5.554548,-3.2561142
2014-03-09 15:36:20.463,6.703765,-5.094861,-3.5625722
2014-03-09 15:36:20.474,7.201759,-5.094861,-3.6008794
2014-03-09 15:36:20.494,7.3166804,-5.056554,-3.7924154
2014-03-09 15:36:20.503,7.1251445,-4.711789,-4.2521024
2014-03-09 15:36:20.523,7.5082164,-4.367024,-4.5202527
2014-03-09 15:36:20.543,6.4739213,-5.592855,-4.213795
2014-03-09 15:36:20.555,6.8186865,-5.8226986,-4.0222588
2014-03-09 15:36:20.575,6.2823853,-5.707777,-5.861006
2014-03-09 15:36:20.583,5.592855,-5.7843914,-5.3247046
2014-03-09 15:36:20.603,6.3589997,-4.903325,-4.060566
2014-03-09 15:36:20.624,6.205771,-4.060566,-3.9073372
2014-03-09 15:36:20.635,6.8569937,-4.673482,-4.1371803
2014-03-09 15:36:20.657,7.393295,-5.0182467,-4.2904096
2014-03-09 15:36:20.669,7.3549876,-5.133168,-4.175488
2014-03-09 15:36:20.685,6.742072,-4.673482,-4.405331
2014-03-09 15:36:20.695,6.244078,-4.6351743,-4.55856
2014-03-09 15:36:20.714,6.167464,-5.2480903,-4.2521024
2014-03-09 15:36:20.734,6.435614,-4.9799395,-4.3287168
2014-03-09 15:36:20.743,6.895301,-5.4779334,-4.8267107
2014-03-09 15:36:20.764,7.201759,-5.2480903,-5.056554
2014-03-09 15:36:20.775,6.895301,-4.2904096,-2.4899697
2014-03-09 15:36:20.796,5.93762,-3.1411927,-3.2944214
2014-03-09 15:36:20.814,7.5465236,-4.175488,-4.2521024
2014-03-09 15:36:20.823,5.8226986,-5.439626,-5.094861
2014-03-09 15:36:20.843,6.7803793,-5.8226986,-5.2863975
2014-03-09 15:36:20.854,7.240066,-6.8186865,-4.4436383
2014-03-09 15:36:20.874,6.244078,-5.861006,-3.4476504
2014-03-09 15:36:20.894,5.8226986,-6.167464,-4.55856
2014-03-09 15:36:20.903,6.167464,-6.167464,-5.171476
2014-03-09 15:36:20.924,6.703765,-5.66947,-5.056554
2014-03-09 15:36:20.934,7.240066,-5.2480903,-3.9839516
2014-03-09 15:36:20.957,6.7803793,-4.596867,-3.6391866
2014-03-09 15:36:20.968,6.397307,-4.903325,-3.371036
2014-03-09 15:36:21.001,6.6271505,-5.209783,-3.6774938
2014-03-09 15:36:21.020,6.588843,-5.439626,-4.098873
2014-03-09 15:36:21.021,5.439626,-4.2904096,-4.55856
2014-03-09 15:36:21.034,7.8912888,-5.094861,-4.4819455
2014-03-09 15:36:21.043,7.393295,-5.5162406,-4.1371803
2014-03-09 15:36:21.063,6.742072,-5.401319,-4.1371803
2014-03-09 15:36:21.083,6.7803793,-5.0182467,-4.4819455
2014-03-09 15:36:21.093,7.393295,-5.056554,-3.86903
2014-03-09 15:36:21.114,7.431602,-5.056554,-3.371036
2014-03-09 15:36:21.124,7.3166804,-5.746084,-3.3327289
2014-03-09 15:36:21.144,6.167464,-6.3589997,-3.5242648
2014-03-09 15:36:21.157,6.244078,-5.363012,-4.0222588
2014-03-09 15:36:21.176,6.588843,-4.4436383,-4.2521024
2014-03-09 15:36:21.195,6.9719152,-4.4819455,-4.1371803
2014-03-09 15:36:21.206,7.8146744,-5.209783,-3.8307228
2014-03-09 15:36:21.225,7.776367,-5.93762,-3.4093432
2014-03-09 15:36:21.235,7.1251445,-5.9759274,-3.4859576
2014-03-09 15:36:21.255,6.129156,-5.0182467,-4.1371803
2014-03-09 15:36:21.276,6.167464,-4.175488,-3.9839516
2014-03-09 15:36:21.286,7.201759,-4.55856,-4.0222588
2014-03-09 15:36:21.316,8.082825,-5.439626,-4.098873
2014-03-09 15:36:21.318,8.121132,-4.865018,-4.0222588
2014-03-09 15:36:21.345,7.3166804,-3.8307228,-4.098873
2014-03-09 15:36:21.363,6.6271505,-3.1794999,-4.060566
2014-03-09 15:36:21.368,7.1634517,-4.6351743,-3.86903
2014-03-09 15:36:21.383,7.5465236,-5.401319,-3.86903
2014-03-09 15:36:21.394,8.082825,-6.129156,-3.8307228
2014-03-09 15:36:21.414,8.00621,-6.397307,-3.8307228
2014-03-09 15:36:21.434,6.8186865,-5.401319,-3.8307228
2014-03-09 15:36:21.443,6.4739213,-4.9799395,-3.4476504
2014-03-09 15:36:21.463,6.205771,-4.711789,-3.371036
2014-03-09 15:36:21.475,6.588843,-4.9416323,-3.86903
2014-03-09 15:36:21.497,7.3166804,-3.9839516,-3.9456444
2014-03-09 15:36:21.508,7.8529816,-4.2521024,-4.3287168
2014-03-09 15:36:21.523,7.6614456,-3.8307228,-4.3287168
2014-03-09 15:36:21.543,7.5465236,-3.7541082,-3.5242648
2014-03-09 15:36:21.554,6.8186865,-3.715801,-3.4093432
2014-03-09 15:36:21.574,6.3589997,-3.6391866,-3.6008794
2014-03-09 15:36:21.583,6.5122285,-4.5202527,-3.715801
2014-03-09 15:36:21.603,6.7803793,-5.746084,-3.371036
2014-03-09 15:36:21.629,6.4739213,-4.7884035,-3.715801
2014-03-09 15:36:21.633,7.2783732,-4.060566,-3.2944214
2014-03-09 15:36:21.653,8.0445175,-3.4093432,-3.2944214
2014-03-09 15:36:21.663,7.5848308,-3.1028855,-4.3287168
2014-03-09 15:36:21.683,6.397307,-3.2561142,-4.3287168
2014-03-09 15:36:21.703,5.899313,-3.9456444,-4.098873
2014-03-09 15:36:21.713,7.6614456,-5.746084,-3.5242648
2014-03-09 15:36:21.733,8.963891,-5.4779334,-3.8307228
2014-03-09 15:36:21.743,8.236053,-4.2904096,-3.86903
2014-03-09 15:36:21.766,7.8146744,-3.9839516,-3.8307228
2014-03-09 15:36:21.774,7.6231384,-4.060566,-3.6391866
2014-03-09 15:36:21.793,7.393295,-4.2521024,-3.3327289
2014-03-09 15:36:21.813,7.201759,-4.367024,-3.4859576
2014-03-09 15:36:21.823,6.8569937,-4.098873,-4.0222588
2014-03-09 15:36:21.843,7.2783732,-4.098873,-4.1371803
2014-03-09 15:36:21.853,7.431602,-3.9839516,-3.86903
2014-03-09 15:36:21.876,7.0485296,-3.7541082,-3.5242648
2014-03-09 15:36:21.893,7.0102224,-3.7541082,-3.4093432
2014-03-09 15:36:21.903,7.201759,-3.371036,-3.8307228
2014-03-09 15:36:21.924,6.703765,-2.9113493,-4.3287168
2014-03-09 15:36:21.934,6.129156,-3.1028855,-4.2521024
2014-03-09 15:36:21.954,6.2823853,-4.2521024,-3.7924154
2014-03-09 15:36:21.964,7.5082164,-5.93762,-3.1411927
2014-03-09 15:36:21.983,9.11712,-5.93762,-2.3750482
2014-03-09 15:36:22.003,11.262324,-5.861006,-1.2641385
2014-03-09 15:36:22.014,12.411542,-5.133168,-2.183512
2014-03-09 15:36:22.038,9.385271,-2.7581203,-4.5202527
2014-03-09 15:36:22.049,7.086837,-2.681506,-4.405331
2014-03-09 15:36:22.064,7.240066,-2.9113493,-4.7500963
2014-03-09 15:36:22.084,7.5082164,-2.7581203,-5.094861
2014-03-09 15:36:22.095,7.8146744,-2.3750482,-5.363012
2014-03-09 15:36:22.115,7.699753,-2.183512,-5.056554
2014-03-09 15:36:22.126,7.0485296,-2.183512,-4.55856
2014-03-09 15:36:22.148,6.5505357,-2.3750482,-3.9073372
2014-03-09 15:36:22.155,6.129156,-2.6431987,-4.1371803
2014-03-09 15:36:22.173,6.742072,-3.1411927,-3.6008794
2014-03-09 15:36:22.194,8.082825,-3.6008794,-3.8307228
2014-03-09 15:36:22.203,9.270349,-5.171476,-4.0222588
2014-03-09 15:36:22.224,8.887277,-6.4739213,-4.2904096
2014-03-09 15:36:22.234,8.00621,-6.0525417,-4.4819455
2014-03-09 15:36:22.254,7.240066,-5.4779334,-3.2944214
2014-03-09 15:36:22.266,6.742072,-5.363012,-3.3327289
2014-03-09 15:36:22.285,6.5505357,-4.55856,-3.7541082
2014-03-09 15:36:22.304,6.5122285,-4.405331,-3.7541082
2014-03-09 15:36:22.315,6.4739213,-4.405331,-3.8307228
2014-03-09 15:36:22.335,7.6231384,-4.367024,-3.4093432
2014-03-09 15:36:22.355,7.8529816,-3.9839516,-3.1028855
2014-03-09 15:36:22.366,8.197746,-4.1371803,-2.2601264
2014-03-09 15:36:22.385,8.274361,-5.363012,-2.719813
2014-03-09 15:36:22.395,7.6231384,-6.435614,-3.1794999
2014-03-09 15:36:22.415,7.5465236,-5.631162,-3.8307228
2014-03-09 15:36:22.435,8.734048,-3.4476504,-4.4819455
2014-03-09 15:36:22.447,8.925584,-2.834735,-3.5625722
2014-03-09 15:36:22.464,7.8912888,-3.1028855,-2.834735
2014-03-09 15:36:22.476,7.1251445,-3.4859576,-3.2944214
2014-03-09 15:36:22.495,7.6231384,-3.715801,-3.9456444
2014-03-09 15:36:22.507,7.5848308,-4.596867,-5.3247046
2014-03-09 15:36:22.523,7.1634517,-4.1371803,-6.8186865
2014-03-09 15:36:22.543,6.8186865,-2.4133554,-7.929596
2014-03-09 15:36:22.554,7.201759,-1.3024458,-5.4779334
2014-03-09 15:36:22.574,7.3549876,-1.685518,-3.1794999
2014-03-09 15:36:22.583,7.8912888,-2.2601264,-2.3750482
2014-03-09 15:36:22.603,8.082825,-2.9496565,-2.2984335
2014-03-09 15:36:22.624,9.270349,-3.064578,-0.80445176
2014-03-09 15:36:22.635,10.572795,-3.715801,1.5705963
2014-03-09 15:36:22.660,8.42759,-6.0142345,7.3166804
2014-03-09 15:36:22.668,6.933608,-7.393295,8.389283
2014-03-09 15:36:22.683,6.205771,-7.240066,3.1028855
2014-03-09 15:36:22.694,5.592855,-6.6271505,0.30645782
2014-03-09 15:36:22.714,5.171476,-5.2863975,0.15322891
2014-03-09 15:36:22.734,5.2863975,-3.4859576,1.6472107
2014-03-09 15:36:22.743,6.8186865,-3.1028855,2.1068976
2014-03-09 15:36:22.763,11.798626,-3.2944214,1.3024458
2014-03-09 15:36:22.774,13.560759,-3.6391866,0.9959879
2014-03-09 15:36:22.794,11.645397,-3.6774938,0.8810662
2014-03-09 15:36:22.814,10.419566,-4.4436383,0.45968673
2014-03-09 15:36:22.824,8.963891,-5.133168,-1.340753
2014-03-09 15:36:22.843,7.5465236,-4.5202527,-0.6895301
2014-03-09 15:36:22.854,5.746084,-4.5202527,1.6472107
2014-03-09 15:36:22.879,6.895301,-4.4819455,3.217807
2014-03-09 15:36:22.894,7.6614456,-5.056554,2.9879637
2014-03-09 15:36:22.903,8.274361,-5.2863975,2.2601264
2014-03-09 15:36:22.927,8.925584,-5.861006,1.9536686
2014-03-09 15:36:22.935,9.308656,-5.66947,1.4173675
2014-03-09 15:36:22.955,8.772355,-5.3247046,0.9576807
2014-03-09 15:36:22.965,8.197746,-5.171476,0.80445176
2014-03-09 15:36:22.984,7.967903,-4.9416323,0.7278373
2014-03-09 15:36:23.004,7.776367,-4.865018,0.8810662
2014-03-09 15:36:23.015,7.5848308,-4.865018,1.1109096
2014-03-09 15:36:23.035,7.5082164,-4.865018,1.2641385
2014-03-09 15:36:23.046,7.5465236,-5.094861,1.1875241
2014-03-09 15:36:23.064,7.6614456,-5.363012,1.1875241
2014-03-09 15:36:23.084,8.0445175,-5.439626,1.1109096
2014-03-09 15:36:23.095,8.350976,-5.3247046,1.1109096
2014-03-09 15:36:23.115,8.465898,-5.056554,1.1875241
2014-03-09 15:36:23.126,8.42759,-4.8267107,1.1875241
2014-03-09 15:36:23.144,8.159439,-4.596867,1.3024458
2014-03-09 15:36:23.164,7.929596,-4.8267107,1.5705963
2014-03-09 15:36:23.176,7.8146744,-5.056554,1.9153614
2014-03-09 15:36:23.195,7.6614456,-5.056554,2.2218192
2014-03-09 15:36:23.206,7.5848308,-5.0182467,2.6431987
2014-03-09 15:36:23.225,7.393295,-5.094861,2.873042
2014-03-09 15:36:23.235,7.086837,-5.056554,2.9113493
2014-03-09 15:36:23.255,6.7803793,-4.9416323,2.873042
2014-03-09 15:36:23.276,6.742072,-5.209783,2.719813
2014-03-09 15:36:23.287,6.8569937,-5.401319,2.4133554
2014-03-09 15:36:23.304,6.933608,-5.439626,2.3750482
2014-03-09 15:36:23.315,6.8569937,-5.0182467,2.1068976
2014-03-09 15:36:23.335,6.8186865,-4.7500963,2.0685902
2014-03-09 15:36:23.355,6.895301,-4.903325,2.0685902
2014-03-09 15:36:23.367,7.1634517,-5.133168,1.9536686
2014-03-09 15:36:23.385,7.5082164,-5.2480903,1.9153614
2014-03-09 15:36:23.395,7.8529816,-5.592855,1.9153614
2014-03-09 15:36:23.416,8.236053,-5.707777,1.9536686
2014-03-09 15:36:23.433,8.542512,-5.899313,2.2218192
2014-03-09 15:36:23.443,9.040505,-5.631162,1.9919758
2014-03-09 15:36:23.463,9.078813,-5.3247046,1.532289
2014-03-09 15:36:23.474,8.925584,-5.171476,0.91937345
2014-03-09 15:36:23.494,8.350976,-5.3247046,0.49799395
2014-03-09 15:36:23.503,6.933608,-5.631162,-0.19153613
2014-03-09 15:36:23.526,6.167464,-6.6654577,-0.30645782
2014-03-09 15:36:23.543,5.554548,-6.895301,-0.15322891
2014-03-09 15:36:23.555,5.439626,-6.244078,-0.5746084
2014-03-09 15:36:23.575,5.363012,-5.746084,-0.5746084
2014-03-09 15:36:23.583,5.2863975,-5.554548,-0.80445176
2014-03-09 15:36:23.603,4.8267107,-4.865018,-0.61291564
2014-03-09 15:36:23.617,3.6774938,-3.8307228,-0.61291564
2014-03-09 15:36:23.635,4.903325,-3.6774938,-1.4556746
2014-03-09 15:36:23.661,7.5465236,-4.1371803,-2.0685902
2014-03-09 15:36:23.669,7.3166804,-4.2521024,-2.4899697
2014-03-09 15:36:23.683,5.93762,-4.55856,-2.6048915
2014-03-09 15:36:23.693,4.9799395,-5.171476,-2.2984335
2014-03-09 15:36:23.714,5.133168,-5.631162,-2.4516625
2014-03-09 15:36:23.734,6.588843,-5.707777,-2.3750482
2014-03-09 15:36:23.743,9.155427,-6.703765,-2.528277
2014-03-09 15:36:23.764,9.998186,-7.8146744,-2.834735
2014-03-09 15:36:23.775,8.542512,-7.431602,-2.6431987
2014-03-09 15:36:23.794,7.469909,-5.7843914,-2.681506
2014-03-09 15:36:23.806,5.7843914,-4.405331,-0.9576807
2014-03-09 15:36:23.827,6.742072,-6.205771,0.22984336
2014-03-09 15:36:23.844,8.580819,-7.776367,-0.7661445
2014-03-09 15:36:23.855,8.350976,-8.121132,-1.4939818
2014-03-09 15:36:23.873,7.8912888,-7.6231384,-1.5705963
2014-03-09 15:36:23.894,9.615114,-8.350976,-0.49799395
2014-03-09 15:36:23.903,9.883265,-8.42759,-0.38307226
2014-03-09 15:36:23.923,9.461885,-8.159439,-0.6895301
2014-03-09 15:36:23.934,9.270349,-8.925584,-0.91937345
2014-03-09 15:36:23.954,8.848969,-9.11712,-0.9959879
2014-03-09 15:36:23.964,8.963891,-8.772355,-1.2641385
2014-03-09 15:36:23.983,9.346964,-8.542512,-1.3790601
2014-03-09 15:36:24.006,8.963891,-7.6614456,-0.9576807
2014-03-09 15:36:24.015,8.274361,-6.7803793,-0.61291564
2014-03-09 15:36:24.035,7.8146744,-6.3206925,-0.45968673
2014-03-09 15:36:24.045,7.469909,-6.090849,-0.49799395
2014-03-09 15:36:24.065,7.240066,-6.0525417,-0.6512229
2014-03-09 15:36:24.084,7.3166804,-6.0525417,-0.80445176
2014-03-09 15:36:24.095,7.3549876,-6.0525417,-0.80445176
2014-03-09 15:36:24.115,7.5082164,-6.090849,-0.80445176
2014-03-09 15:36:24.126,7.5082164,-6.129156,-0.7278373
2014-03-09 15:36:24.144,7.6231384,-6.4739213,-0.6512229
2014-03-09 15:36:24.200,7.6614456,-6.588843,-0.6512229
2014-03-09 15:36:24.209,7.8146744,-6.435614,-0.7278373
2014-03-09 15:36:24.219,7.699753,-6.3206925,-0.6512229
2014-03-09 15:36:24.230,7.393295,-6.167464,-0.49799395
2014-03-09 15:36:24.236,7.3549876,-6.205771,-0.49799395
2014-03-09 15:36:24.237,7.393295,-6.129156,-0.6895301
2014-03-09 15:36:24.254,7.3549876,-5.631162,-0.842759
2014-03-09 15:36:24.274,7.6231384,-5.439626,-1.1492168
2014-03-09 15:36:24.283,7.3549876,-5.2480903,-1.2641385
2014-03-09 15:36:24.304,7.1634517,-5.056554,-0.9959879
2014-03-09 15:36:24.314,7.0102224,-5.2480903,-0.38307226
2014-03-09 15:36:24.334,7.0102224,-5.401319,-0.38307226
2014-03-09 15:36:24.357,7.0102224,-5.401319,-0.4213795
2014-03-09 15:36:24.368,7.0102224,-5.3247046,-0.4213795
2014-03-09 15:36:24.385,7.3549876,-5.363012,-0.2681506
2014-03-09 15:36:24.395,7.6231384,-5.3247046,-0.15322891
2014-03-09 15:36:24.415,7.776367,-5.3247046,0.11492168
2014-03-09 15:36:24.428,7.469909,-4.405331,-1.4173675
2014-03-09 15:36:24.445,7.393295,-5.7843914,1.7238252
2014-03-09 15:36:24.465,7.776367,-5.2863975,0.91937345
2014-03-09 15:36:24.474,8.121132,-5.2480903,1.3024458
2014-03-09 15:36:24.493,8.082825,-5.363012,1.340753
2014-03-09 15:36:24.503,7.8912888,-5.209783,1.3790601
2014-03-09 15:36:24.524,7.929596,-5.094861,1.4939818
2014-03-09 15:36:24.543,7.8912888,-4.8267107,1.8387469
2014-03-09 15:36:24.555,7.8146744,-5.094861,2.1068976
2014-03-09 15:36:24.575,7.699753,-5.171476,2.2218192
2014-03-09 15:36:24.583,7.776367,-5.2480903,2.528277
2014-03-09 15:36:24.606,7.967903,-5.2480903,2.4516625
2014-03-09 15:36:24.625,8.274361,-4.9799395,2.2984335
2014-03-09 15:36:24.635,8.772355,-5.363012,2.2218192
2014-03-09 15:36:24.655,8.925584,-5.592855,2.2601264
2014-03-09 15:36:24.667,9.11712,-5.746084,2.183512
2014-03-09 15:36:24.686,9.308656,-6.0142345,2.2218192
2014-03-09 15:36:24.695,9.040505,-6.205771,2.566584
2014-03-09 15:36:24.718,8.312668,-5.861006,2.719813
2014-03-09 15:36:24.734,7.8146744,-5.592855,2.6431987
2014-03-09 15:36:24.743,7.393295,-5.209783,2.6431987
2014-03-09 15:36:24.763,6.933608,-4.711789,2.3750482
2014-03-09 15:36:24.774,6.7803793,-4.5202527,2.2601264
2014-03-09 15:36:24.794,6.895301,-4.405331,1.8387469
2014-03-09 15:36:24.817,7.086837,-4.2904096,1.340753
2014-03-09 15:36:24.829,7.3549876,-3.9073372,0.842759
2014-03-09 15:36:24.844,7.6231384,-3.4476504,0.38307226
2014-03-09 15:36:24.855,7.776367,-2.9113493,0.11492168
2014-03-09 15:36:24.876,7.776367,-2.566584,0.076614454
2014-03-09 15:36:24.895,7.967903,-2.6431987,-0.038307227
2014-03-09 15:36:24.905,8.159439,-2.834735,0.0
2014-03-09 15:36:24.929,8.465898,-2.7964275,-0.11492168
2014-03-09 15:36:24.935,8.580819,-2.7581203,-0.4213795
2014-03-09 15:36:24.955,8.580819,-2.9496565,-0.076614454
2014-03-09 15:36:24.966,8.772355,-3.1411927,0.22984336
2014-03-09 15:36:24.983,9.155427,-3.4093432,0.34476504
2014-03-09 15:36:25.003,9.461885,-3.5242648,0.15322891
2014-03-09 15:36:25.014,9.308656,-3.2561142,0.0
2014-03-09 15:36:25.033,8.772355,-2.9879637,-0.19153613
2014-03-09 15:36:25.043,8.580819,-3.064578,-0.15322891
2014-03-09 15:36:25.063,8.312668,-3.0262709,-0.15322891
2014-03-09 15:36:25.083,8.0445175,-2.9113493,-0.11492168
2014-03-09 15:36:25.094,7.8529816,-2.7581203,-0.11492168
2014-03-09 15:36:25.117,7.8529816,-2.7581203,-0.22984336
2014-03-09 15:36:25.132,7.929596,-2.4899697,-0.45968673
2014-03-09 15:36:25.145,8.121132,-2.1452048,-0.5746084
2014-03-09 15:36:25.155,8.580819,-1.8387469,-0.6895301
2014-03-09 15:36:25.176,8.925584,-1.7621324,-0.91937345
2014-03-09 15:36:25.195,8.848969,-1.7621324,-0.9576807
2014-03-09 15:36:25.206,8.887277,-1.9919758,-1.0342951
2014-03-09 15:36:25.227,9.232041,-2.2218192,-1.340753
2014-03-09 15:36:25.235,9.691729,-2.2984335,-1.4939818
2014-03-09 15:36:25.255,9.921572,-2.6431987,-1.6472107
2014-03-09 15:36:25.275,9.615114,-2.719813,-1.685518
2014-03-09 15:36:25.286,9.11712,-2.6431987,-1.7621324
2014-03-09 15:36:25.304,8.772355,-2.6431987,-1.685518
2014-03-09 15:36:25.315,8.734048,-2.7964275,-1.3790601
2014-03-09 15:36:25.335,8.925584,-2.873042,-1.2258313
2014-03-09 15:36:25.356,8.848969,-2.873042,-1.2641385
2014-03-09 15:36:25.367,8.734048,-2.9496565,-1.4173675
2014-03-09 15:36:25.385,9.155427,-3.064578,-1.6472107
2014-03-09 15:36:25.395,9.5385,-3.064578,-1.8387469
2014-03-09 15:36:25.415,9.921572,-2.9496565,-2.0685902
2014-03-09 15:36:25.428,9.998186,-2.7581203,-2.0685902
2014-03-09 15:36:25.445,9.423578,-2.3750482,-1.8387469
2014-03-09 15:36:25.466,9.078813,-1.8770541,-1.6089035
2014-03-09 15:36:25.473,9.385271,-1.8387469,-1.4173675
2014-03-09 15:36:25.493,9.615114,-2.030283,-1.1492168
2014-03-09 15:36:25.503,9.768343,-2.1068976,-1.1109096
2014-03-09 15:36:25.524,9.730036,-1.8387469,-1.1109096
2014-03-09 15:36:25.543,9.615114,-1.5705963,-1.0726024
2014-03-09 15:36:25.554,9.653421,-1.685518,-0.7278373
2014-03-09 15:36:25.575,9.615114,-1.8004397,-0.49799395
2014-03-09 15:36:25.583,9.461885,-1.8004397,-0.4213795
2014-03-09 15:36:25.607,9.308656,-1.8770541,-0.4213795
2014-03-09 15:36:25.625,9.040505,-1.9153614,-0.38307226
2014-03-09 15:36:25.641,9.002198,-1.9153614,-0.2681506
2014-03-09 15:36:25.655,9.078813,-2.030283,-0.076614454
2014-03-09 15:36:25.666,9.232041,-2.4516625,0.15322891
2014-03-09 15:36:25.683,9.346964,-2.6431987,0.30645782
2014-03-09 15:36:25.693,9.385271,-2.873042,0.38307226
2014-03-09 15:36:25.714,9.308656,-2.9879637,0.6512229
2014-03-09 15:36:25.734,9.078813,-2.7964275,0.7661445
2014-03-09 15:36:25.743,9.078813,-2.528277,0.91937345
2014-03-09 15:36:25.766,9.155427,-2.336741,0.9576807
2014-03-09 15:36:25.776,9.423578,-2.1452048,0.8810662
2014-03-09 15:36:25.795,9.691729,-1.9919758,0.8810662
2014-03-09 15:36:25.810,9.576807,-1.8387469,0.842759
2014-03-09 15:36:25.830,9.385271,-1.7238252,0.9959879
2014-03-09 15:36:25.847,9.11712,-1.6089035,1.0342951
2014-03-09 15:36:25.855,8.925584,-1.685518,1.0726024
2014-03-09 15:36:25.876,8.887277,-1.8004397,1.4173675
2014-03-09 15:36:25.894,9.040505,-1.8770541,1.5705963
2014-03-09 15:36:25.903,9.155427,-1.9536686,1.8770541
2014-03-09 15:36:25.924,9.193734,-2.030283,1.9919758
2014-03-09 15:36:25.934,9.232041,-1.9919758,1.9153614
2014-03-09 15:36:25.957,9.423578,-1.7238252,1.8004397
2014-03-09 15:36:25.967,9.615114,-1.4556746,1.5705963
2014-03-09 15:36:25.987,9.653421,-1.4556746,1.340753
2014-03-09 15:36:26.005,9.576807,-1.6089035,1.3024458
2014-03-09 15:36:26.015,9.385271,-1.685518,1.4173675
2014-03-09 15:36:26.035,9.270349,-1.7238252,1.532289
2014-03-09 15:36:26.046,9.193734,-1.6472107,1.685518
2014-03-09 15:36:26.066,9.270349,-1.532289,1.7621324
2014-03-09 15:36:26.084,9.461885,-1.4556746,1.7238252
2014-03-09 15:36:26.093,9.615114,-1.340753,1.6089035
2014-03-09 15:36:26.114,9.615114,-1.340753,1.4939818
2014-03-09 15:36:26.124,9.346964,-1.4556746,1.4556746
2014-03-09 15:36:26.144,9.078813,-1.4939818,1.6472107
2014-03-09 15:36:26.154,9.11712,-1.5705963,1.685518
2014-03-09 15:36:26.174,9.423578,-1.4939818,1.7238252
2014-03-09 15:36:26.194,9.653421,-1.4173675,1.7621324
2014-03-09 15:36:26.206,9.615114,-1.340753,1.5705963
2014-03-09 15:36:26.225,9.270349,-1.340753,1.6472107
2014-03-09 15:36:26.235,8.772355,-1.340753,1.685518
2014-03-09 15:36:26.256,9.002198,-1.3024458,1.7238252
2014-03-09 15:36:26.276,9.653421,-1.3790601,1.8004397
2014-03-09 15:36:26.284,9.80665,-1.3790601,1.6089035
2014-03-09 15:36:26.304,9.423578,-1.3024458,1.5705963
2014-03-09 15:36:26.315,9.155427,-1.2258313,1.4939818
2014-03-09 15:36:26.338,9.078813,-1.1109096,1.4939818
2014-03-09 15:36:26.356,9.078813,-0.9576807,1.1875241
2014-03-09 15:36:26.366,9.040505,-0.842759,1.0726024
2014-03-09 15:36:26.384,9.11712,-0.6895301,1.1492168
2014-03-09 15:36:26.395,9.461885,-0.6512229,1.3024458
2014-03-09 15:36:26.419,9.653421,-0.6895301,1.4556746
2014-03-09 15:36:26.423,9.461885,-0.842759,1.5705963
2014-03-09 15:36:26.443,9.270349,-0.9959879,1.7621324
2014-03-09 15:36:26.464,9.461885,-1.1109096,1.8004397
2014-03-09 15:36:26.475,9.768343,-1.1875241,1.7621324
2014-03-09 15:36:26.495,9.80665,-1.0342951,1.6089035
2014-03-09 15:36:26.504,9.5385,-0.7278373,1.4173675
2014-03-09 15:36:26.526,9.308656,-0.5746084,1.4556746
2014-03-09 15:36:26.544,9.308656,-0.7661445,1.5705963
2014-03-09 15:36:26.560,9.500193,-0.842759,1.6472107
2014-03-09 15:36:26.576,9.653421,-0.842759,1.685518
2014-03-09 15:36:26.585,9.576807,-0.6895301,1.5705963
2014-03-09 15:36:26.603,9.385271,-0.6895301,1.4939818
2014-03-09 15:36:26.614,9.308656,-0.7278373,1.4556746
2014-03-09 15:36:26.634,9.193734,-0.80445176,1.4939818
2014-03-09 15:36:26.654,9.232041,-0.6895301,1.4939818
2014-03-09 15:36:26.664,9.385271,-0.5746084,1.532289
2014-03-09 15:36:26.683,9.461885,-0.34476504,1.532289
2014-03-09 15:36:26.694,9.423578,-0.11492168,1.4939818
2014-03-09 15:36:26.719,9.11712,-0.11492168,1.532289
2014-03-09 15:36:26.734,8.848969,-0.38307226,1.5705963
2014-03-09 15:36:26.743,8.887277,-0.7661445,1.7238252
2014-03-09 15:36:26.764,8.887277,-1.0342951,1.7621324
2014-03-09 15:36:26.774,9.002198,-0.9576807,1.6089035
2014-03-09 15:36:26.795,9.270349,-0.80445176,1.5705963
2014-03-09 15:36:26.814,9.576807,-0.7661445,1.532289
2014-03-09 15:36:26.823,9.653421,-0.49799395,1.3790601
2014-03-09 15:36:26.843,9.576807,-0.34476504,1.3024458
2014-03-09 15:36:26.854,9.461885,-0.22984336,1.3790601
2014-03-09 15:36:26.874,9.346964,-0.2681506,1.4173675
2014-03-09 15:36:26.894,9.385271,-0.22984336,1.4173675
2014-03-09 15:36:26.903,9.461885,-0.076614454,1.3790601
2014-03-09 15:36:26.917,9.500193,0.2681506,1.4173675
2014-03-09 15:36:26.935,9.576807,0.34476504,1.6472107
2014-03-09 15:36:26.956,9.653421,0.38307226,1.685518
2014-03-09 15:36:26.964,9.768343,0.11492168,1.685518
2014-03-09 15:36:26.984,9.653421,-0.19153613,1.6472107
2014-03-09 15:36:27.004,9.270349,0.076614454,1.7621324
2014-03-09 15:36:27.015,9.270349,0.4213795,1.8004397
2014-03-09 15:36:27.035,9.155427,0.4213795,1.7238252
2014-03-09 15:36:27.044,8.580819,0.45968673,1.3790601
2014-03-09 15:36:27.064,7.6231384,-0.11492168,1.0726024
2014-03-09 15:36:27.084,7.201759,-0.7661445,1.340753
2014-03-09 15:36:27.095,7.967903,-1.1492168,1.8770541
2014-03-09 15:36:27.115,9.002198,-1.4939818,2.1452048
2014-03-09 15:36:27.126,9.768343,-1.6472107,2.4516625
2014-03-09 15:36:27.144,10.189722,-1.6472107,2.3750482
2014-03-09 15:36:27.155,9.844957,-1.532289,2.0685902
2014-03-09 15:36:27.174,9.461885,-1.0342951,1.532289
2014-03-09 15:36:27.194,9.615114,-0.076614454,0.9576807
2014-03-09 15:36:27.203,9.768343,0.6512229,0.9576807
2014-03-09 15:36:27.223,9.921572,0.9576807,1.2641385
2014-03-09 15:36:27.234,9.844957,0.5363012,1.5705963
2014-03-09 15:36:27.254,9.844957,0.038307227,1.685518
2014-03-09 15:36:27.274,9.730036,-0.19153613,1.8770541
2014-03-09 15:36:27.283,9.653421,-0.15322891,2.0685902
2014-03-09 15:36:27.303,9.5385,-0.5363012,2.2601264
2014-03-09 15:36:27.317,9.385271,-0.842759,2.2601264
2014-03-09 15:36:27.335,9.423578,-0.7661445,2.2601264
2014-03-09 15:36:27.356,9.423578,-0.6895301,2.4516625
2014-03-09 15:36:27.367,9.346964,-0.22984336,2.4899697
2014-03-09 15:36:27.384,8.734048,0.6512229,2.183512
2014-03-09 15:36:27.396,8.197746,1.3024458,2.1452048
2014-03-09 15:36:27.416,8.0445175,1.532289,1.9153614
2014-03-09 15:36:27.425,8.389283,1.4556746,2.1452048
2014-03-09 15:36:27.444,8.810662,1.3024458,1.8387469
2014-03-09 15:36:27.464,9.002198,0.9959879,1.7238252
2014-03-09 15:36:27.477,9.040505,0.61291564,1.7238252
2014-03-09 15:36:27.496,9.040505,0.5363012,1.532289
2014-03-09 15:36:27.505,9.078813,0.5363012,1.4556746
2014-03-09 15:36:27.525,9.11712,0.7278373,1.3024458
2014-03-09 15:36:27.544,8.963891,0.9576807,1.2258313
2014-03-09 15:36:27.565,9.385271,1.0342951,0.9959879
2014-03-09 15:36:27.578,9.691729,1.1875241,0.842759
2014-03-09 15:36:27.588,9.883265,1.1492168,0.7661445
2014-03-09 15:36:27.605,9.768343,1.2258313,0.80445176
2014-03-09 15:36:27.616,9.346964,1.2258313,1.1109096
2014-03-09 15:36:27.634,8.925584,1.1875241,1.5705963
2014-03-09 15:36:27.654,8.504205,0.9576807,1.8004397
2014-03-09 15:36:27.663,8.274361,0.45968673,2.0685902
2014-03-09 15:36:27.684,7.8912888,0.22984336,2.336741
2014-03-09 15:36:27.694,7.8912888,-0.19153613,2.681506
2014-03-09 15:36:27.719,8.887277,-1.2258313,3.1411927
2014-03-09 15:36:27.735,10.189722,-2.3750482,3.9839516
2014-03-09 15:36:27.748,11.262324,-3.4859576,3.86903
2014-03-09 15:36:27.766,12.181698,-4.865018,2.9879637
2014-03-09 15:36:27.774,12.258312,-5.66947,1.9919758
2014-03-09 15:36:27.794,12.028469,-5.66947,0.61291564
2014-03-09 15:36:27.814,11.109096,-4.55856,-1.1492168
2014-03-09 15:36:27.824,10.91756,-4.098873,-1.5705963
2014-03-09 15:36:27.843,10.764331,-3.86903,-1.8004397
2014-03-09 15:36:27.854,9.5385,-3.86903,-1.5705963
2014-03-09 15:36:27.879,8.389283,-4.060566,-1.1109096
2014-03-09 15:36:27.894,7.0102224,-3.8307228,0.22984336
2014-03-09 15:36:27.904,6.205771,-3.5242648,0.45968673
2014-03-09 15:36:27.917,6.167464,-3.0262709,0.15322891
2014-03-09 15:36:27.935,6.244078,-3.1411927,0.038307227
2014-03-09 15:36:27.955,6.205771,-3.371036,-0.19153613
2014-03-09 15:36:27.966,6.205771,-3.7541082,0.19153613
2014-03-09 15:36:27.985,6.6654577,-4.5202527,-0.038307227
2014-03-09 15:36:28.004,7.0102224,-5.3247046,-0.34476504
2014-03-09 15:36:28.015,7.3549876,-5.133168,-1.1875241
2014-03-09 15:36:28.035,8.121132,-4.2904096,-1.8004397
2014-03-09 15:36:28.046,8.925584,-3.6008794,-1.9919758
2014-03-09 15:36:28.064,9.385271,-2.834735,-2.528277
2014-03-09 15:36:28.085,9.5385,-2.3750482,-2.4899697
2014-03-09 15:36:28.095,9.883265,-2.030283,-2.2601264
2014-03-09 15:36:28.115,10.228029,-1.8004397,-2.2984335
2014-03-09 15:36:28.127,9.921572,-0.6512229,-2.030283
2014-03-09 15:36:28.145,9.883265,0.5746084,-2.7581203
2014-03-09 15:36:28.155,9.691729,0.8810662,-2.528277
2014-03-09 15:36:28.176,9.461885,0.8810662,-1.2258313
2014-03-09 15:36:28.195,10.802638,0.9576807,-2.4516625
2014-03-09 15:36:28.215,9.768343,0.8810662,-1.532289
2014-03-09 15:36:28.230,8.389283,0.38307226,0.4213795
2014-03-09 15:36:28.235,8.42759,-0.38307226,1.1492168
2014-03-09 15:36:28.255,9.308656,-1.2258313,0.9959879
2014-03-09 15:36:28.266,9.883265,-1.4556746,0.9959879
2014-03-09 15:36:28.284,9.80665,-1.6089035,1.1492168
2014-03-09 15:36:28.303,9.5385,-1.9536686,1.0726024
2014-03-09 15:36:28.314,9.155427,-2.336741,1.0726024
2014-03-09 15:36:28.334,8.963891,-2.528277,1.2641385
2014-03-09 15:36:28.354,9.308656,-2.6048915,1.340753
2014-03-09 15:36:28.364,9.80665,-2.6048915,1.1492168
2014-03-09 15:36:28.383,10.151415,-2.719813,0.38307226
2014-03-09 15:36:28.394,9.653421,-2.681506,-0.11492168
2014-03-09 15:36:28.417,8.887277,-2.4516625,-0.19153613
2014-03-09 15:36:28.429,8.580819,-2.2218192,0.076614454
2014-03-09 15:36:28.445,8.772355,-1.8387469,0.22984336
2014-03-09 15:36:28.464,9.078813,-1.2641385,0.038307227
2014-03-09 15:36:28.476,9.346964,-1.0726024,0.0
2014-03-09 15:36:28.495,9.002198,-1.1109096,0.34476504
2014-03-09 15:36:28.506,8.6574335,-1.4173675,0.80445176
2014-03-09 15:36:28.525,8.810662,-1.4173675,0.9959879
2014-03-09 15:36:28.545,8.963891,-1.4556746,0.9959879
2014-03-09 15:36:28.555,9.040505,-1.3790601,1.1492168
2014-03-09 15:36:28.576,9.078813,-1.3024458,1.3790601
2014-03-09 15:36:28.588,9.002198,-1.1109096,1.532289
2014-03-09 15:36:28.606,8.963891,-0.91937345,1.7238252
2014-03-09 15:36:28.616,8.772355,-0.80445176,1.8770541
2014-03-09 15:36:28.634,8.6574335,-0.7661445,1.9919758
2014-03-09 15:36:28.654,8.810662,-0.6895301,1.9919758
2014-03-09 15:36:28.663,8.925584,-0.5746084,1.7621324
2014-03-09 15:36:28.683,8.887277,-0.49799395,1.532289
2014-03-09 15:36:28.694,8.848969,-0.5746084,1.5705963
2014-03-09 15:36:28.717,8.848969,-0.6895301,1.532289
2014-03-09 15:36:28.730,9.040505,-0.91937345,1.4939818
2014-03-09 15:36:28.749,9.346964,-1.1492168,1.4173675
2014-03-09 15:36:28.766,9.423578,-1.2258313,1.2641385
2014-03-09 15:36:28.774,9.193734,-0.9959879,0.9959879
2014-03-09 15:36:28.794,8.848969,-0.61291564,0.91937345
2014-03-09 15:36:28.814,8.619126,-0.30645782,1.0342951
2014-03-09 15:36:28.824,8.810662,-0.19153613,1.1492168
2014-03-09 15:36:28.844,8.695741,0.0,1.340753
2014-03-09 15:36:28.854,8.887277,-0.11492168,1.4556746
2014-03-09 15:36:28.879,8.963891,-0.11492168,1.6089035
2014-03-09 15:36:28.883,9.040505,0.0,1.7621324
2014-03-09 15:36:28.903,9.346964,0.038307227,1.532289
2014-03-09 15:36:28.917,9.270349,0.038307227,1.4556746
2014-03-09 15:36:28.935,9.078813,0.076614454,1.3790601
2014-03-09 15:36:28.955,8.695741,-0.038307227,1.3790601
2014-03-09 15:36:28.966,8.389283,-0.19153613,1.6089035
2014-03-09 15:36:28.985,8.42759,-0.2681506,1.8770541
2014-03-09 15:36:29.004,8.734048,-0.30645782,1.9536686
2014-03-09 15:36:29.015,9.308656,-0.5746084,2.1068976
2014-03-09 15:36:29.035,9.615114,-0.6895301,2.2601264
2014-03-09 15:36:29.046,9.80665,-0.6512229,2.1068976
2014-03-09 15:36:29.064,9.959879,-0.45968673,1.9919758
2014-03-09 15:36:29.084,9.883265,-0.11492168,1.9536686
2014-03-09 15:36:29.095,9.691729,0.19153613,1.8770541
2014-03-09 15:36:29.115,9.346964,0.45968673,1.9919758
2014-03-09 15:36:29.132,8.925584,0.5363012,2.1068976
2014-03-09 15:36:29.160,8.772355,0.2681506,2.336741
2014-03-09 15:36:29.161,8.810662,0.15322891,2.566584
2014-03-09 15:36:29.179,9.040505,-0.038307227,2.528277
2014-03-09 15:36:29.194,9.270349,-0.19153613,2.566584
2014-03-09 15:36:29.203,9.193734,-0.15322891,2.4516625
2014-03-09 15:36:29.223,9.193734,0.0,2.3750482
2014-03-09 15:36:29.234,9.270349,0.076614454,2.4133554
2014-03-09 15:36:29.254,9.346964,0.0,2.528277
2014-03-09 15:36:29.279,9.576807,-0.11492168,2.6431987
2014-03-09 15:36:29.284,9.80665,-0.34476504,2.6048915
2014-03-09 15:36:29.306,9.576807,-0.38307226,2.4899697
2014-03-09 15:36:29.315,9.691729,-0.7661445,3.3327289
2014-03-09 15:36:29.335,9.461885,-0.4213795,2.9496565
2014-03-09 15:36:29.356,9.308656,-0.34476504,2.336741
2014-03-09 15:36:29.367,9.040505,-0.19153613,2.1452048
2014-03-09 15:36:29.383,8.887277,-0.19153613,2.0685902
2014-03-09 15:36:29.394,9.040505,-0.61291564,2.0685902
2014-03-09 15:36:29.414,9.308656,-0.9576807,2.2218192
2014-03-09 15:36:29.423,9.461885,-0.91937345,2.2984335
2014-03-09 15:36:29.443,9.270349,-0.61291564,2.4516625
2014-03-09 15:36:29.463,9.232041,-0.5363012,2.566584
2014-03-09 15:36:29.474,9.615114,-0.842759,2.1452048
2014-03-09 15:36:29.494,9.883265,-1.2641385,1.5705963
2014-03-09 15:36:29.503,9.615114,-1.3024458,1.2641385
2014-03-09 15:36:29.527,9.040505,-1.1109096,1.3024458
2014-03-09 15:36:29.545,8.542512,-0.5746084,1.6472107
2014-03-09 15:36:29.555,8.350976,-0.11492168,1.8387469
2014-03-09 15:36:29.576,8.465898,0.076614454,1.8004397
2014-03-09 15:36:29.588,8.389283,0.19153613,1.6472107
2014-03-09 15:36:29.605,8.465898,0.22984336,1.4556746
2014-03-09 15:36:29.616,8.504205,0.22984336,1.1875241
2014-03-09 15:36:29.634,8.504205,0.11492168,1.1875241
2014-03-09 15:36:29.654,8.389283,-0.076614454,1.3024458
2014-03-09 15:36:29.663,8.236053,-0.2681506,1.4173675
2014-03-09 15:36:29.683,8.236053,-0.5746084,1.1492168
2014-03-09 15:36:29.697,8.6574335,-1.4173675,1.1875241
2014-03-09 15:36:29.715,8.810662,-2.030283,1.2641385
2014-03-09 15:36:29.728,8.772355,-2.2218192,0.8810662
2014-03-09 15:36:29.745,8.695741,-1.9536686,0.22984336
2014-03-09 15:36:29.767,8.082825,-1.0726024,0.19153613
2014-03-09 15:36:29.774,7.3166804,-0.30645782,0.19153613
2014-03-09 15:36:29.794,7.5465236,0.0,-0.038307227
2014-03-09 15:36:29.814,8.236053,0.15322891,-0.076614454
2014-03-09 15:36:29.824,8.963891,0.34476504,-0.038307227
2014-03-09 15:36:29.843,9.308656,0.38307226,0.076614454
2014-03-09 15:36:29.854,9.002198,0.11492168,0.80445176
2014-03-09 15:36:29.879,9.308656,0.2681506,0.7661445
2014-03-09 15:36:29.883,9.691729,0.5746084,0.22984336
2014-03-09 15:36:29.903,9.576807,0.6895301,-0.11492168
2014-03-09 15:36:29.917,9.040505,0.4213795,-0.19153613
2014-03-09 15:36:29.935,8.465898,0.2681506,-0.45968673
2014-03-09 15:36:29.955,7.929596,0.19153613,-0.4213795
2014-03-09 15:36:29.966,7.8146744,0.34476504,-0.4213795
2014-03-09 15:36:29.985,8.350976,0.5746084,-0.9959879
2014-03-09 15:36:30.008,8.772355,0.45968673,-1.532289
2014-03-09 15:36:30.015,8.963891,0.038307227,-1.4939818
2014-03-09 15:36:30.035,8.734048,-0.11492168,-1.7621324
2014-03-09 15:36:30.046,8.695741,-0.19153613,-1.8387469
2014-03-09 15:36:30.064,9.308656,-0.34476504,-1.7621324
2014-03-09 15:36:30.084,10.036493,-0.34476504,-1.2258313
2014-03-09 15:36:30.095,10.611102,-0.5363012,-1.2258313
2014-03-09 15:36:30.115,10.764331,-0.6895301,-0.80445176
2014-03-09 15:36:30.127,10.764331,-0.9576807,-0.38307226
2014-03-09 15:36:30.144,10.840945,-1.3790601,-0.19153613
2014-03-09 15:36:30.155,9.691729,-1.3024458,0.0
2014-03-09 15:36:30.176,7.8529816,-0.7661445,0.38307226
2014-03-09 15:36:30.195,6.8186865,-0.19153613,0.34476504
2014-03-09 15:36:30.207,7.2783732,0.45968673,-0.22984336
2014-03-09 15:36:30.236,8.159439,0.8810662,-1.2641385
2014-03-09 15:36:30.240,8.236053,0.842759,-0.8810662
2014-03-09 15:36:30.256,7.6614456,0.6512229,-0.6895301
2014-03-09 15:36:30.268,7.0102224,1.3024458,-1.532289
2014-03-09 15:36:30.283,6.090849,1.8004397,-1.7621324
2014-03-09 15:36:30.303,5.746084,1.0726024,0.22984336
2014-03-09 15:36:30.314,7.393295,0.80445176,1.2641385
2014-03-09 15:36:30.334,10.419566,0.34476504,0.2681506
2014-03-09 15:36:30.346,13.254301,0.076614454,-1.9919758
2014-03-09 15:36:30.365,12.832921,0.38307226,-1.3790601
2014-03-09 15:36:30.385,10.611102,-0.34476504,1.0342951
2014-03-09 15:36:30.395,10.036493,-0.9576807,0.9959879
2014-03-09 15:36:30.415,10.0748005,-0.45968673,-0.49799395
2014-03-09 15:36:30.427,9.11712,0.34476504,-0.15322891
2014-03-09 15:36:30.445,7.8912888,0.5363012,0.6512229
2014-03-09 15:36:30.466,7.086837,0.4213795,1.4556746
2014-03-09 15:36:30.475,7.6614456,0.34476504,1.6089035
2014-03-09 15:36:30.494,8.159439,0.30645782,0.91937345
2014-03-09 15:36:30.503,8.350976,-0.45968673,0.842759
2014-03-09 15:36:30.524,8.925584,-1.1492168,0.45968673
2014-03-09 15:36:30.543,10.266336,-0.34476504,-0.91937345
2014-03-09 15:36:30.554,10.649409,0.842759,-1.340753
2014-03-09 15:36:30.574,10.151415,0.7278373,-0.4213795
2014-03-09 15:36:30.583,10.496181,-0.45968673,0.038307227
2014-03-09 15:36:30.603,11.530476,-1.7621324,-0.61291564
2014-03-09 15:36:30.614,12.258312,-1.9919758,-0.80445176
2014-03-09 15:36:30.634,11.492168,-1.3790601,-0.4213795
2014-03-09 15:36:30.654,9.002198,-1.340753,0.4213795
2014-03-09 15:36:30.663,7.8146744,-1.8004397,0.34476504
2014-03-09 15:36:30.685,8.925584,-1.532289,-0.9576807
2014-03-09 15:36:30.694,9.11712,-0.6895301,-1.0726024
2014-03-09 15:36:30.714,8.00621,-0.5746084,-1.2641385
2014-03-09 15:36:30.734,7.6231384,-0.8810662,-1.532289
2014-03-09 15:36:30.743,8.734048,-1.2641385,-1.9919758
2014-03-09 15:36:30.764,9.155427,-1.4556746,-1.4939818
2014-03-09 15:36:30.774,9.270349,-1.7621324,-0.9959879
2014-03-09 15:36:30.794,10.342952,-2.030283,-1.1492168
2014-03-09 15:36:30.818,11.032481,-1.8004397,-0.842759
2014-03-09 15:36:30.830,9.500193,-1.1875241,-0.19153613
2014-03-09 15:36:30.844,8.887277,-1.2258313,-0.2681506
2014-03-09 15:36:30.859,9.423578,-1.8387469,-0.80445176
2014-03-09 15:36:30.876,9.270349,-2.6431987,-0.7278373
2014-03-09 15:36:30.891,9.576807,-2.9113493,-0.9576807
2014-03-09 15:36:30.905,10.457873,-2.681506,-1.2641385
2014-03-09 15:36:30.926,10.649409,-2.6048915,-1.5705963
2014-03-09 15:36:30.935,11.109096,-2.7581203,-1.9919758
2014-03-09 15:36:30.955,10.726024,-3.2561142,-1.4939818
2014-03-09 15:36:30.966,9.576807,-4.060566,-0.6895301
2014-03-09 15:36:30.984,8.121132,-4.0222588,-0.34476504
2014-03-09 15:36:31.004,7.3166804,-2.9496565,-0.8810662
2014-03-09 15:36:31.015,8.082825,-2.2218192,-1.3790601
2014-03-09 15:36:31.035,9.040505,-2.1452048,-2.1452048
2014-03-09 15:36:31.046,9.11712,-2.2601264,-2.4133554
2014-03-09 15:36:31.064,8.695741,-2.834735,-2.3750482
2014-03-09 15:36:31.084,8.389283,-3.6008794,-2.4516625
2014-03-09 15:36:31.095,11.33894,-3.86903,-3.2561142
2014-03-09 15:36:31.115,12.641385,-3.1794999,-3.064578
2014-03-09 15:36:31.126,10.419566,-2.7581203,-1.9153614
2014-03-09 15:36:31.144,10.534488,-3.6391866,-2.0685902
2014-03-09 15:36:31.156,10.649409,-4.2904096,-1.7621324
2014-03-09 15:36:31.176,9.998186,-3.6391866,-1.2641385
2014-03-09 15:36:31.195,10.113108,-3.6008794,-1.3790601
2014-03-09 15:36:31.205,10.304645,-3.6391866,-2.030283
2014-03-09 15:36:31.224,10.113108,-3.9073372,-1.8387469
2014-03-09 15:36:31.235,9.155427,-4.711789,-2.566584
2014-03-09 15:36:31.256,7.469909,-5.171476,-2.719813
2014-03-09 15:36:31.276,7.086837,-4.9799395,-2.834735
2014-03-09 15:36:31.287,7.3549876,-4.2904096,-2.9113493
2014-03-09 15:36:31.304,10.572795,-2.873042,-3.9839516
2014-03-09 15:36:31.315,10.649409,-1.7238252,-3.5242648
2014-03-09 15:36:31.337,5.592855,-2.2218192,-1.4556746
2014-03-09 15:36:31.348,5.439626,-3.217807,-1.685518
2014-03-09 15:36:31.366,6.435614,-2.719813,-2.2218192
2014-03-09 15:36:31.385,6.3206925,-2.2218192,-1.9153614
2014-03-09 15:36:31.395,8.465898,-2.183512,-2.566584
2014-03-09 15:36:31.415,10.381259,-2.3750482,-2.4899697
2014-03-09 15:36:31.428,8.887277,-2.4899697,-1.0726024
2014-03-09 15:36:31.446,8.350976,-2.183512,-1.7621324
2014-03-09 15:36:31.465,8.848969,-1.8387469,-2.0685902
2014-03-09 15:36:31.474,8.312668,-1.532289,-1.6472107
2014-03-09 15:36:31.493,7.73806,-1.532289,-1.7238252
2014-03-09 15:36:31.503,6.9719152,-1.4173675,-1.1492168
2014-03-09 15:36:31.524,6.5505357,-0.9959879,-0.9576807
2014-03-09 15:36:31.544,7.086837,-0.4213795,-1.8770541
2014-03-09 15:36:31.554,7.393295,0.4213795,-2.0685902
2014-03-09 15:36:31.575,7.240066,0.91937345,-2.030283
2014-03-09 15:36:31.583,6.933608,1.340753,-1.8770541
2014-03-09 15:36:31.606,6.588843,1.8004397,-0.9959879
2014-03-09 15:36:31.614,7.0102224,1.8004397,-0.91937345
2014-03-09 15:36:31.634,8.6574335,1.5705963,-1.7238252
2014-03-09 15:36:31.654,10.304645,1.4556746,-1.4939818
2014-03-09 15:36:31.663,10.91756,1.7621324,-0.91937345
2014-03-09 15:36:31.682,10.6877165,2.030283,-0.22984336
2014-03-09 15:36:31.696,9.346964,2.2984335,-0.30645782
2014-03-09 15:36:31.717,7.73806,2.3750482,0.5746084
2014-03-09 15:36:31.736,6.6654577,2.4133554,1.4939818
2014-03-09 15:36:31.743,5.9759274,2.4133554,1.2641385
2014-03-09 15:36:31.763,6.4739213,2.7964275,-0.842759
2014-03-09 15:36:31.774,7.929596,2.4899697,-1.4173675
2014-03-09 15:36:31.793,9.5385,0.80445176,-0.842759
2014-03-09 15:36:31.813,10.496181,-0.5746084,0.0
2014-03-09 15:36:31.824,11.032481,-2.030283,-0.11492168
2014-03-09 15:36:31.843,11.070788,-2.834735,-0.22984336
2014-03-09 15:36:31.853,9.921572,-1.7238252,0.2681506
2014-03-09 15:36:31.873,8.734048,1.532289,-0.19153613
2014-03-09 15:36:31.883,7.5848308,2.873042,-0.5363012
2014-03-09 15:36:31.903,6.933608,3.4859576,-0.842759
2014-03-09 15:36:31.929,6.703765,4.1371803,-0.2681506
2014-03-09 15:36:31.934,6.588843,4.405331,-0.038307227
2014-03-09 15:36:31.953,5.8226986,4.175488,0.45968673
2014-03-09 15:36:31.963,4.9799395,3.371036,0.61291564
2014-03-09 15:36:31.984,4.4436383,2.7581203,0.30645782
2014-03-09 15:36:32.003,4.4436383,1.2641385,-0.038307227
2014-03-09 15:36:32.014,5.056554,0.15322891,0.15322891
2014-03-09 15:36:32.034,6.167464,-0.34476504,0.7661445
2014-03-09 15:36:32.043,8.350976,-0.30645782,1.1875241
2014-03-09 15:36:32.063,12.028469,0.30645782,0.19153613
2014-03-09 15:36:32.083,17.54471,1.1109096,-3.8307228
2014-03-09 15:36:32.094,17.391481,1.7238252,-0.34476504
2014-03-09 15:36:32.114,14.250289,0.22984336,5.861006
2014-03-09 15:36:32.125,13.484144,2.183512,2.7964275
2014-03-09 15:36:32.144,13.713987,3.9073372,-0.61291564
2014-03-09 15:36:32.157,13.9438305,4.3287168,-1.6089035
2014-03-09 15:36:32.176,12.5264635,4.596867,-1.7621324
2014-03-09 15:36:32.195,6.7803793,2.719813,-1.7238252
2014-03-09 15:36:32.206,1.4939818,1.340753,-0.19153613
2014-03-09 15:36:32.227,-1.7238252,1.2258313,2.030283
2014-03-09 15:36:32.235,-1.7238252,0.9959879,-0.038307227
2014-03-09 15:36:32.260,0.7661445,0.6512229,-4.060566
2014-03-09 15:36:32.276,4.7884035,0.7661445,-5.8226986
2014-03-09 15:36:32.287,7.929596,1.6089035,-2.2984335
2014-03-09 15:36:32.305,9.653421,1.1109096,0.4213795
2014-03-09 15:36:32.315,13.024457,-0.4213795,-0.38307226
2014-03-09 15:36:32.335,13.599066,-1.2258313,1.2258313
2014-03-09 15:36:32.344,12.909535,-0.842759,2.566584
2014-03-09 15:36:32.364,14.78659,2.0685902,-1.6089035
2014-03-09 15:36:32.384,17.736246,3.7924154,-3.4859576
2014-03-09 15:36:32.395,18.50239,4.9416323,-1.6472107
2014-03-09 15:36:32.415,17.123331,7.469909,-2.4133554
2014-03-09 15:36:32.426,14.173674,6.5122285,-3.6008794
2014-03-09 15:36:32.444,11.760319,6.7803793,-3.1794999
2014-03-09 15:36:32.464,10.879252,5.363012,-3.1794999
2014-03-09 15:36:32.481,11.377247,3.4859576,-3.217807
2014-03-09 15:36:32.504,12.832921,3.371036,-4.098873
2014-03-09 15:36:32.511,13.713987,2.873042,-3.715801
2014-03-09 15:36:32.523,13.40753,1.5705963,-3.3327289
2014-03-09 15:36:32.543,11.109096,0.11492168,-3.86903
2014-03-09 15:36:32.554,8.580819,-0.7278373,-4.596867
2014-03-09 15:36:32.575,6.8186865,-1.1492168,-3.3327289
2014-03-09 15:36:32.583,6.2823853,-0.45968673,-1.8004397
2014-03-09 15:36:32.604,5.592855,-0.11492168,-2.6048915
2014-03-09 15:36:32.617,3.8307228,0.5746084,-2.9496565
2014-03-09 15:36:32.636,2.6048915,1.9919758,-2.6048915
2014-03-09 15:36:32.655,2.7581203,2.873042,-3.371036
2014-03-09 15:36:32.665,3.1028855,0.7278373,-4.1371803
2014-03-09 15:36:32.683,2.528277,-0.076614454,-2.4899697
2014-03-09 15:36:32.694,2.873042,1.5705963,-1.0726024
2014-03-09 15:36:32.715,4.2521024,0.038307227,-1.4939818
2014-03-09 15:36:32.734,3.9839516,-0.11492168,0.842759
2014-03-09 15:36:32.744,5.209783,-0.19153613,-0.80445176
2014-03-09 15:36:32.764,8.159439,0.4213795,-2.4516625
2014-03-09 15:36:32.775,13.062764,0.38307226,-5.5162406
2014-03-09 15:36:32.809,16.089035,-0.34476504,-7.201759
2014-03-09 15:36:32.815,13.560759,-2.336741,-3.1028855
2014-03-09 15:36:32.824,11.147403,-2.9113493,-0.6895301
2014-03-09 15:36:32.848,12.449849,-2.528277,-4.2904096
2014-03-09 15:36:32.854,12.756307,-1.340753,-6.8186865
2014-03-09 15:36:32.875,9.921572,-0.5746084,-5.554548
2014-03-09 15:36:32.883,7.5465236,0.7661445,-5.7843914
2014-03-09 15:36:32.903,6.3589997,1.6089035,-5.8226986
2014-03-09 15:36:32.924,4.405331,1.4173675,-5.056554
2014-03-09 15:36:32.934,3.2561142,1.4173675,-5.592855
2014-03-09 15:36:32.954,3.2561142,1.5705963,-5.861006
2014-03-09 15:36:32.964,3.6774938,0.34476504,-4.4819455
2014-03-09 15:36:32.983,5.0182467,-0.7278373,-2.566584
2014-03-09 15:36:32.997,6.205771,-1.1875241,-2.2601264
2014-03-09 15:36:33.015,7.2783732,-1.2258313,-2.9879637
2014-03-09 15:36:33.035,8.772355,-0.8810662,-6.090849
2014-03-09 15:36:33.044,10.840945,-0.15322891,-9.078813
2014-03-09 15:36:33.064,15.667656,-1.1492168,-10.266336
2014-03-09 15:36:33.076,15.629349,-2.9879637,-5.056554
2014-03-09 15:36:33.095,14.288596,-3.9073372,-1.9536686
2014-03-09 15:36:33.115,13.637373,-4.098873,-3.5625722
2014-03-09 15:36:33.124,10.802638,-2.6048915,-3.371036
2014-03-09 15:36:33.144,10.726024,-1.2258313,-4.673482
2014-03-09 15:36:33.155,12.29662,-0.7278373,-7.1251445
2014-03-09 15:36:33.176,12.181698,-1.1875241,-6.3589997
2014-03-09 15:36:33.195,12.603078,-1.3790601,-7.1251445
2014-03-09 15:36:33.204,11.60709,-1.2258313,-8.350976
2014-03-09 15:36:33.224,7.929596,-0.5746084,-5.4779334
2014-03-09 15:36:33.235,4.2521024,0.0,-2.6431987
2014-03-09 15:36:33.255,4.4819455,0.6512229,-4.1371803
2014-03-09 15:36:33.275,7.1634517,0.61291564,-6.0142345
2014-03-09 15:36:33.284,11.262324,-0.15322891,-9.500193
2014-03-09 15:36:33.304,11.147403,-1.1109096,-4.865018
2014-03-09 15:36:33.315,4.7884035,-1.6089035,0.34476504
2014-03-09 15:36:33.335,2.873042,-1.6472107,-2.2984335
2014-03-09 15:36:33.345,3.6774938,-0.5746084,-3.064578
2014-03-09 15:36:33.364,5.746084,0.38307226,-4.9799395
2014-03-09 15:36:33.384,8.082825,1.1492168,-7.8529816
2014-03-09 15:36:33.395,10.726024,0.7661445,-3.1411927
2014-03-09 15:36:33.416,14.441825,-2.6431987,-1.0342951
2014-03-09 15:36:33.426,19.230228,-3.6391866,-3.8307228
2014-03-09 15:36:33.444,12.334928,-4.213795,4.060566
2014-03-09 15:36:33.464,10.151415,-3.6774938,-0.80445176
2014-03-09 15:36:33.477,11.760319,-1.2258313,-4.865018
2014-03-09 15:36:33.496,8.0445175,0.34476504,-4.1371803
2014-03-09 15:36:33.505,8.236053,-1.9153614,-4.175488
2014-03-09 15:36:33.526,10.726024,-3.2561142,-7.086837
2014-03-09 15:36:33.545,8.465898,-2.6431987,-5.171476
2014-03-09 15:36:33.557,5.439626,-1.2641385,-2.2601264
2014-03-09 15:36:33.578,3.6774938,0.076614454,-1.2258313
2014-03-09 15:36:33.588,4.367024,0.9576807,-2.2984335
2014-03-09 15:36:33.605,6.742072,1.340753,-6.205771
2014-03-09 15:36:33.615,10.955867,0.61291564,-7.3549876
2014-03-09 15:36:33.636,11.951855,-0.5363012,-2.9879637
2014-03-09 15:36:33.656,9.768343,-1.9153614,1.7621324
2014-03-09 15:36:33.667,9.921572,-2.4516625,0.038307227
2014-03-09 15:36:33.683,9.500193,-1.8770541,-3.4859576
2014-03-09 15:36:33.693,9.80665,0.45968673,-6.742072
2014-03-09 15:36:33.715,8.274361,0.7661445,-5.094861
2014-03-09 15:36:33.734,5.2480903,0.038307227,-0.61291564
2014-03-09 15:36:33.744,4.3287168,-0.6895301,-1.3790601
2014-03-09 15:36:33.764,4.098873,-1.532289,-3.5625722
2014-03-09 15:36:33.775,4.213795,-2.4516625,-4.903325
2014-03-09 15:36:33.808,6.742072,-1.8770541,-4.9799395
2014-03-09 15:36:33.809,9.385271,-0.80445176,-3.7924154
2014-03-09 15:36:33.825,9.385271,0.45968673,-2.336741
2014-03-09 15:36:33.844,9.461885,-0.22984336,-2.566584
2014-03-09 15:36:33.857,10.572795,-2.3750482,-4.6351743
2014-03-09 15:36:33.875,11.951855,-2.873042,-5.899313
2014-03-09 15:36:33.883,12.947843,-2.528277,-5.3247046
2014-03-09 15:36:33.903,12.909535,-1.9919758,-4.903325
2014-03-09 15:36:33.924,10.726024,-2.0685902,-4.3287168
2014-03-09 15:36:33.934,10.342952,-2.1452048,-4.367024
2014-03-09 15:36:33.954,11.224017,-2.9113493,-4.4819455
2014-03-09 15:36:33.964,12.29662,-3.1028855,-6.3589997
2014-03-09 15:36:33.984,15.437813,-1.9919758,-8.159439
2014-03-09 15:36:34.003,16.472107,-1.3790601,-9.500193
2014-03-09 15:36:34.014,8.504205,-1.7238252,-5.8226986
2014-03-09 15:36:34.034,1.7621324,-1.4556746,-2.3750482
2014-03-09 15:36:34.046,-0.842759,-1.0726024,-2.566584
2014-03-09 15:36:34.082,0.076614454,-0.49799395,-1.9153614
2014-03-09 15:36:34.088,2.0685902,-0.22984336,-3.371036
2014-03-09 15:36:34.117,4.098873,0.5363012,-4.405331
2014-03-09 15:36:34.125,4.9799395,-0.076614454,-4.4819455
2014-03-09 15:36:34.136,5.9759274,-0.34476504,-2.873042
2014-03-09 15:36:34.146,8.0445175,-0.4213795,-1.7621324
2014-03-09 15:36:34.154,10.304645,-2.183512,-2.9879637
2014-03-09 15:36:34.178,12.334928,-3.5242648,-5.3247046
2014-03-09 15:36:34.194,14.288596,-2.719813,-6.2823853
2014-03-09 15:36:34.203,13.139379,-1.0726024,-4.213795
2014-03-09 15:36:34.228,9.461885,-2.2218192,-0.038307227
2014-03-09 15:36:34.235,9.385271,-2.566584,-0.8810662
2014-03-09 15:36:34.267,10.879252,-1.6472107,-5.4779334
2014-03-09 15:36:34.277,11.262324,-1.4556746,-6.7803793
2014-03-09 15:36:34.288,10.764331,-2.2601264,-5.9759274
2014-03-09 15:36:34.304,9.078813,-3.4093432,-4.7884035
2014-03-09 15:36:34.315,8.197746,-4.6351743,-4.367024
2014-03-09 15:36:34.335,7.393295,-4.596867,-5.0182467
2014-03-09 15:36:34.346,5.899313,-3.2561142,-3.8307228
2014-03-09 15:36:34.364,4.8267107,-0.19153613,-1.5705963
2014-03-09 15:36:34.384,4.673482,1.685518,-1.7238252
2014-03-09 15:36:34.395,6.205771,2.4133554,-2.9879637
2014-03-09 15:36:34.415,9.768343,1.6089035,-3.86903
2014-03-09 15:36:34.427,11.568783,0.9576807,-3.6008794
2014-03-09 15:36:34.444,12.832921,0.45968673,-0.7278373
2014-03-09 15:36:34.464,14.863204,-1.532289,-2.336741
2014-03-09 15:36:34.476,12.679692,-2.834735,-2.336741
2014-03-09 15:36:34.495,8.6574335,-2.9113493,-1.340753
2014-03-09 15:36:34.507,7.8146744,-2.1068976,-2.9879637
2014-03-09 15:36:34.526,7.431602,-0.22984336,-3.1794999
2014-03-09 15:36:34.535,7.393295,0.38307226,-2.873042
2014-03-09 15:36:34.555,8.082825,0.22984336,-3.0262709
2014-03-09 15:36:34.576,9.270349,0.7278373,-2.6431987
2014-03-09 15:36:34.588,10.496181,0.30645782,-2.336741
2014-03-09 15:36:34.605,10.764331,-1.0342951,-2.4133554
2014-03-09 15:36:34.616,10.419566,-1.340753,-0.91937345
2014-03-09 15:36:34.633,8.848969,-0.61291564,0.076614454
2014-03-09 15:36:34.653,8.350976,0.6895301,-0.8810662
2014-03-09 15:36:34.663,9.078813,1.5705963,-1.532289
2014-03-09 15:36:34.683,9.461885,1.5705963,-1.9919758
2014-03-09 15:36:34.694,9.11712,1.0342951,-2.4899697
2014-03-09 15:36:34.717,9.576807,1.1109096,-2.4899697
2014-03-09 15:36:34.735,9.883265,0.30645782,-1.9919758
2014-03-09 15:36:34.750,10.534488,0.2681506,-3.1794999
2014-03-09 15:36:34.766,10.0748005,0.6512229,-2.2601264
2014-03-09 15:36:34.775,7.469909,1.1492168,-1.6472107
2014-03-09 15:36:34.794,4.213795,0.5363012,-1.532289
2014-03-09 15:36:34.803,5.899313,0.49799395,-2.9879637
2014-03-09 15:36:34.823,8.580819,0.6512229,-1.2641385
2014-03-09 15:36:34.843,12.449849,0.6895301,-3.5242648
2014-03-09 15:36:34.854,14.633361,0.4213795,-4.8267107
2014-03-09 15:36:34.884,12.5264635,1.0726024,-3.1794999
2014-03-09 15:36:34.886,11.645397,0.5746084,-1.5705963
2014-03-09 15:36:34.905,9.883265,1.6472107,-0.61291564
2014-03-09 15:36:34.926,10.955867,2.681506,-0.842759
2014-03-09 15:36:34.935,12.411542,1.685518,-0.91937345
2014-03-09 15:36:34.955,13.177686,0.842759,-3.064578
2014-03-09 15:36:34.965,12.373235,-0.842759,-3.6391866
2014-03-09 15:36:34.985,12.373235,-1.1109096,-5.0182467
2014-03-09 15:36:35.005,9.423578,-0.19153613,-3.0262709
2014-03-09 15:36:35.015,6.8186865,1.1109096,-2.7964275
2014-03-09 15:36:35.034,6.244078,2.030283,-1.7238252
2014-03-09 15:36:35.044,9.346964,1.6472107,-7.8529816
2014-03-09 15:36:35.064,7.8912888,-0.49799395,-3.371036
2014-03-09 15:36:35.075,5.66947,-3.9073372,-4.367024
2014-03-09 15:36:35.094,6.397307,-1.532289,-5.93762
2014-03-09 15:36:35.114,7.73806,-1.4173675,-4.9799395
2014-03-09 15:36:35.125,11.683704,-2.2984335,-7.5082164
2014-03-09 15:36:35.145,12.143391,-1.6089035,-6.742072
2014-03-09 15:36:35.154,6.5122285,-1.1109096,-0.80445176
2014-03-09 15:36:35.177,4.4819455,-1.8387469,-0.7661445
2014-03-09 15:36:35.195,7.393295,-2.7964275,-3.1411927
2014-03-09 15:36:35.204,9.385271,-2.566584,-4.903325
2014-03-09 15:36:35.224,10.228029,-3.2561142,-5.3247046
2014-03-09 15:36:35.236,8.734048,-4.060566,-4.213795
2014-03-09 15:36:35.256,4.2904096,-4.7500963,-3.1794999
2014-03-09 15:36:35.277,3.217807,-3.9839516,-3.5625722
2014-03-09 15:36:35.285,4.673482,-3.3327289,-4.55856
2014-03-09 15:36:35.319,3.217807,-2.6431987,-4.060566
2014-03-09 15:36:35.327,2.2984335,-1.3790601,-2.7581203
2014-03-09 15:36:35.339,4.596867,-2.834735,-1.6472107
2014-03-09 15:36:35.348,7.8912888,-5.209783,-3.0262709
2014-03-09 15:36:35.365,11.415554,-5.363012,-6.4739213
2014-03-09 15:36:35.383,12.832921,-3.86903,-6.0142345
2014-03-09 15:36:35.394,9.615114,-1.9919758,-2.2218192
2014-03-09 15:36:35.414,6.7803793,-0.4213795,-0.22984336
2014-03-09 15:36:35.424,8.197746,0.9959879,-1.0342951
2014-03-09 15:36:35.443,12.909535,0.076614454,-5.66947
2014-03-09 15:36:35.463,15.859192,-1.0726024,-10.726024
2014-03-09 15:36:35.480,11.9135475,-2.719813,-9.768343
2014-03-09 15:36:35.496,6.205771,-5.401319,-5.2863975
2014-03-09 15:36:35.504,10.113108,-8.810662,-4.2521024
2014-03-09 15:36:35.524,10.036493,-8.350976,-6.4739213
2014-03-09 15:36:35.534,5.631162,-7.8146744,-6.7803793
2014-03-09 15:36:35.553,10.228029,-9.998186,-9.308656
2014-03-09 15:36:35.574,15.437813,-10.649409,-12.871228
2014-03-09 15:36:35.583,17.429789,-9.423578,-13.905523
2014-03-09 15:36:35.606,1.0726024,-3.86903,4.098873
2014-03-09 15:36:35.613,-2.2984335,-3.2561142,2.528277
2014-03-09 15:36:35.633,18.042704,-6.4739213,-17.736246
2014-03-09 15:36:35.653,18.770542,-6.5122285,-19.153614
2014-03-09 15:36:35.663,2.7581203,-7.929596,-6.588843
2014-03-09 15:36:35.683,-3.371036,-5.363012,-5.2863975
2014-03-09 15:36:35.693,4.6351743,-6.3589997,-12.679692
2014-03-09 15:36:35.713,6.6654577,-4.4436383,-12.98615
2014-03-09 15:36:35.727,3.3327289,-4.8267107,-10.0748005
2014-03-09 15:36:35.744,1.7621324,-6.129156,-6.5122285
2014-03-09 15:36:35.763,1.2641385,-6.3206925,-5.0182467
2014-03-09 15:36:35.774,0.7661445,-4.6351743,-4.213795
2014-03-09 15:36:35.793,2.834735,-5.401319,-5.899313
2014-03-09 15:36:35.803,5.7843914,-6.090849,-9.002198
2014-03-09 15:36:35.833,11.032481,-8.465898,-16.357185
2014-03-09 15:36:35.844,12.066776,-7.2783732,-12.909535
2014-03-09 15:36:35.853,4.6351743,-2.2601264,-0.80445176
2014-03-09 15:36:35.873,3.2561142,-1.4556746,1.4939818
2014-03-09 15:36:35.883,4.9799395,-0.842759,-4.55856
2014-03-09 15:36:35.904,7.8529816,-0.22984336,-7.73806
2014-03-09 15:36:35.929,10.726024,1.1492168,-6.8569937
2014-03-09 15:36:35.933,9.691729,0.8810662,-4.4819455
2014-03-09 15:36:35.953,5.363012,1.1109096,-2.183512
2014-03-09 15:36:35.967,1.6089035,1.4556746,-0.38307226
2014-03-09 15:36:35.985,-0.2681506,0.842759,-1.4173675
2014-03-09 15:36:36.005,-0.4213795,0.15322891,-2.030283
2014-03-09 15:36:36.016,3.6008794,-2.566584,-4.098873
2014-03-09 15:36:36.034,9.193734,-4.7500963,-4.9799395
2014-03-09 15:36:36.045,14.78659,-4.1371803,-6.4739213
2014-03-09 15:36:36.065,17.429789,-0.9576807,-6.397307
2014-03-09 15:36:36.081,8.504205,0.91937345,-0.8810662
2014-03-09 15:36:36.094,8.848969,1.4939818,-4.1371803
2014-03-09 15:36:36.116,9.040505,4.7884035,-3.2561142
2014-03-09 15:36:36.124,5.592855,6.244078,-5.5162406
2014-03-09 15:36:36.144,1.1875241,5.094861,-4.4436383
2014-03-09 15:36:36.153,7.431602,3.9073372,-2.6048915
2014-03-09 15:36:36.174,11.224017,0.5746084,-8.121132
2014-03-09 15:36:36.193,12.717999,3.5242648,-10.228029
2014-03-09 15:36:36.204,18.042704,3.217807,-9.615114
2014-03-09 15:36:36.224,18.425776,-0.5746084,-10.266336
2014-03-09 15:36:36.234,8.389283,1.340753,-5.66947
2014-03-09 15:36:36.254,7.929596,2.183512,-1.532289
2014-03-09 15:36:36.267,9.11712,6.3589997,-4.7884035
2014-03-09 15:36:36.290,9.80665,6.397307,-13.790602
2014-03-09 15:36:36.306,5.631162,2.2601264,-8.504205
2014-03-09 15:36:36.318,9.883265,2.528277,-10.764331
2014-03-09 15:36:36.334,9.385271,2.183512,-10.342952
2014-03-09 15:36:36.344,9.844957,0.91937345,-12.258312
2014-03-09 15:36:36.364,4.098873,2.528277,-0.22984336
2014-03-09 15:36:36.376,5.056554,2.3750482,-2.2601264
2014-03-09 15:36:36.394,6.6654577,2.1452048,-10.764331
2014-03-09 15:36:36.414,6.933608,1.3790601,-5.9759274
2014-03-09 15:36:36.424,11.492168,-0.15322891,-9.80665
2014-03-09 15:36:36.444,10.0748005,-2.030283,-11.87524
2014-03-09 15:36:36.464,7.73806,-0.91937345,-7.6614456
2014-03-09 15:36:36.474,7.3549876,0.076614454,-6.090849
2014-03-09 15:36:36.494,7.8912888,-0.076614454,-8.312668
2014-03-09 15:36:36.504,8.389283,-0.2681506,-9.346964
2014-03-09 15:36:36.525,7.0485296,0.38307226,-8.159439
2014-03-09 15:36:36.544,4.711789,-0.49799395,-7.431602
2014-03-09 15:36:36.555,3.7541082,0.19153613,-8.00621
2014-03-09 15:36:36.567,2.681506,-0.842759,-8.197746
2014-03-09 15:36:36.588,3.0262709,-0.6512229,-8.580819
2014-03-09 15:36:36.610,1.8387469,-2.2218192,-6.2823853
2014-03-09 15:36:36.625,3.1411927,-1.1492168,-6.4739213
2014-03-09 15:36:36.633,3.86903,-1.4939818,-9.615114
2014-03-09 15:36:36.654,3.0262709,-0.61291564,-7.699753
2014-03-09 15:36:36.664,2.566584,-0.34476504,-6.397307
2014-03-09 15:36:36.685,3.8307228,-1.532289,-8.619126
2014-03-09 15:36:36.694,3.5625722,-2.7964275,-8.082825
2014-03-09 15:36:36.714,2.2601264,-1.5705963,-6.9719152
2014-03-09 15:36:36.733,2.1452048,-1.0726024,-9.959879
2014-03-09 15:36:36.743,2.719813,-0.7278373,-9.193734
2014-03-09 15:36:36.772,2.4133554,-1.5705963,-8.0445175
2014-03-09 15:36:36.775,3.4859576,-3.2561142,-10.611102
2014-03-09 15:36:36.794,3.1794999,-4.4436383,-11.492168
2014-03-09 15:36:36.805,1.2258313,-3.0262709,-7.393295
2014-03-09 15:36:36.825,1.9919758,-2.2218192,-11.798626
2014-03-09 15:36:36.845,1.3024458,-1.3024458,-11.33894
2014-03-09 15:36:36.854,0.22984336,-1.8004397,-9.653421
2014-03-09 15:36:36.875,0.4213795,-3.6391866,-11.377247
2014-03-09 15:36:36.885,0.5363012,-4.213795,-11.377247
2014-03-09 15:36:36.905,-1.340753,-3.2561142,-11.33894
2014-03-09 15:36:36.926,-2.030283,-2.4516625,-10.496181
2014-03-09 15:36:36.934,-3.0262709,-0.30645782,-10.534488
2014-03-09 15:36:36.954,-4.175488,0.9959879,-5.631162
2014-03-09 15:36:36.964,-5.861006,-1.3790601,-7.8529816
2014-03-09 15:36:36.989,-1.9536686,-5.133168,-17.621325
2014-03-09 15:36:37.005,-0.22984336,0.11492168,-15.361198
2014-03-09 15:36:37.015,-1.1875241,-3.0262709,-14.633361
2014-03-09 15:36:37.033,0.61291564,-4.673482,-17.889475
2014-03-09 15:36:37.044,-1.1875241,-5.5162406,-15.47612
2014-03-09 15:36:37.064,-1.6089035,-4.175488,-12.641385
2014-03-09 15:36:37.074,-1.2641385,-4.405331,-13.101071
2014-03-09 15:36:37.093,-1.1492168,-4.6351743,-10.840945
2014-03-09 15:36:37.107,4.903325,-6.6271505,-19.077
2014-03-09 15:36:37.126,3.6774938,-8.0445175,-14.288596
2014-03-09 15:36:37.145,5.439626,-5.056554,-14.058752
2014-03-09 15:36:37.154,3.6008794,-3.86903,-16.625336
2014-03-09 15:36:37.175,4.1371803,-0.4213795,-12.641385
2014-03-09 15:36:37.195,2.681506,-1.9919758,-13.905523
2014-03-09 15:36:37.205,1.1875241,-0.9959879,-13.484144
2014-03-09 15:36:37.223,2.4133554,0.45968673,-17.046717
2014-03-09 15:36:37.233,1.2258313,-2.4133554,-9.500193
2014-03-09 15:36:37.254,3.86903,-5.401319,-15.016433
2014-03-09 15:36:37.264,6.3206925,-5.7843914,-13.062764
2014-03-09 15:36:37.284,7.431602,-6.0142345,-14.595054
2014-03-09 15:36:37.304,9.461885,-5.4779334,-14.671668
2014-03-09 15:36:37.313,12.909535,-6.5505357,-13.177686
2014-03-09 15:36:37.333,17.199945,-8.6574335,-17.468096
2014-03-09 15:36:37.344,19.6133,-8.734048,-14.211981
2014-03-09 15:36:37.368,19.6133,-11.836933,-14.441825
2014-03-09 15:36:37.387,19.6133,-12.143391,-10.764331
2014-03-09 15:36:37.396,19.6133,-9.346964,-8.504205
2014-03-09 15:36:37.415,19.6133,-6.2823853,-4.2521024
2014-03-09 15:36:37.424,19.6133,-3.715801,-2.873042
2014-03-09 15:36:37.444,19.6133,-3.2944214,1.9919758
2014-03-09 15:36:37.465,18.464083,-2.4133554,3.6391866
2014-03-09 15:36:37.474,13.215993,1.2258313,3.86903
2014-03-09 15:36:37.493,7.8146744,3.5242648,9.078813
2014-03-09 15:36:37.506,4.2904096,6.5505357,13.867216
2014-03-09 15:36:37.526,1.1492168,9.385271,10.113108
2014-03-09 15:36:37.534,-1.340753,8.465898,8.159439
2014-03-09 15:36:37.556,-2.528277,6.167464,6.129156
2014-03-09 15:36:37.576,-2.6048915,4.060566,4.2521024
2014-03-09 15:36:37.586,-3.5625722,1.2641385,3.2944214
2014-03-09 15:36:37.606,-4.175488,-0.61291564,3.4093432
2014-03-09 15:36:37.617,-4.213795,-2.2218192,3.9073372
2014-03-09 15:36:37.633,-4.8267107,-3.9073372,3.1028855
2014-03-09 15:36:37.654,-4.8267107,-4.6351743,1.6089035
2014-03-09 15:36:37.664,-2.0685902,-2.4899697,-0.49799395
2014-03-09 15:36:37.684,-1.0342951,-0.49799395,-4.673482
2014-03-09 15:36:37.693,2.566584,-2.2601264,-12.794614
2014-03-09 15:36:37.714,4.9416323,-2.1068976,-5.861006
2014-03-09 15:36:37.733,5.592855,-1.1109096,-2.4899697
2014-03-09 15:36:37.744,1.4556746,-1.3024458,3.0262709
2014-03-09 15:36:37.769,5.056554,0.30645782,10.113108
2014-03-09 15:36:37.779,-3.064578,7.393295,-0.9576807
2014-03-09 15:36:37.794,-4.673482,8.848969,-7.776367
2014-03-09 15:36:37.806,7.0102224,-1.8004397,5.401319
2014-03-09 15:36:37.826,11.87524,-4.405331,2.873042
2014-03-09 15:36:37.855,1.4173675,-2.7581203,1.9153614
2014-03-09 15:36:37.887,-0.5363012,-1.1875241,-1.3024458
2014-03-09 15:36:37.917,2.6048915,1.3790601,-1.3790601
2014-03-09 15:36:37.918,3.4476504,2.9879637,-0.9959879
2014-03-09 15:36:37.922,0.9576807,4.2904096,-2.2984335
2014-03-09 15:36:37.945,-0.076614454,3.4093432,-2.183512
2014-03-09 15:36:37.949,-0.5746084,1.5705963,-1.7621324
2014-03-09 15:36:37.955,-0.45968673,-0.80445176,-1.532289
2014-03-09 15:36:37.964,-0.30645782,-1.3790601,-1.4939818
2014-03-09 15:36:37.984,-0.6512229,-1.0342951,-1.9153614
2014-03-09 15:36:38.004,-0.842759,-0.9959879,-1.3024458
2014-03-09 15:36:38.014,-0.38307226,-0.80445176,-0.61291564
2014-03-09 15:36:38.034,1.0342951,-0.49799395,-0.45968673
2014-03-09 15:36:38.044,2.0685902,0.22984336,-0.45968673
2014-03-09 15:36:38.065,1.6472107,0.038307227,-0.49799395
2014-03-09 15:36:38.077,1.1109096,-0.7278373,-0.34476504
2014-03-09 15:36:38.094,0.5746084,-2.1068976,-0.15322891
2014-03-09 15:36:38.115,0.22984336,-2.566584,0.5746084
2014-03-09 15:36:38.126,0.22984336,-2.030283,1.3024458
2014-03-09 15:36:38.145,0.5746084,-1.7621324,1.4173675
2014-03-09 15:36:38.156,0.9959879,-1.1875241,2.7581203
2014-03-09 15:36:38.175,0.5746084,-0.038307227,3.4859576
2014-03-09 15:36:38.194,-0.2681506,0.7661445,3.5242648
2014-03-09 15:36:38.205,-1.4939818,0.842759,2.6431987
2014-03-09 15:36:38.226,-2.2984335,0.038307227,3.1028855
2014-03-09 15:36:38.240,13.177686,-12.756307,7.6231384
2014-03-09 15:36:38.254,-11.990162,5.2480903,-4.1371803
2014-03-09 15:36:38.318,-19.574993,6.6271505,-17.774553
2014-03-09 15:36:38.320,9.002198,-11.492168,13.484144
2014-03-09 15:36:38.326,-4.098873,-0.11492168,-1.4939818
2014-03-09 15:36:38.333,15.47612,-13.67568,11.070788
2014-03-09 15:36:38.337,12.488156,-6.5505357,4.9799395
2014-03-09 15:36:38.344,7.201759,-3.9073372,-5.9759274
2014-03-09 15:36:38.364,6.933608,-3.7924154,9.002198
2014-03-09 15:36:38.384,6.742072,-3.86903,11.60709
2014-03-09 15:36:38.393,0.19153613,0.45968673,2.834735
2014-03-09 15:36:38.414,7.8529816,-0.61291564,7.201759
2014-03-09 15:36:38.424,6.8186865,2.2218192,1.9153614
2014-03-09 15:36:38.444,7.6231384,3.9456444,9.461885
2014-03-09 15:36:38.464,9.385271,2.6048915,19.6133
2014-03-09 15:36:38.473,-5.554548,-0.7661445,11.722012
2014-03-09 15:36:38.493,0.2681506,-2.4899697,13.752295
2014-03-09 15:36:38.503,3.3327289,-3.2561142,12.373235
2014-03-09 15:36:38.524,4.060566,-2.336741,14.633361
2014-03-09 15:36:38.544,3.4859576,-2.2984335,9.883265
2014-03-09 15:36:38.553,2.681506,-3.4093432,7.8146744
2014-03-09 15:36:38.574,3.217807,-4.55856,11.87524
2014-03-09 15:36:38.584,3.1794999,-4.4819455,9.921572
2014-03-09 15:36:38.603,3.715801,-2.3750482,5.8226986
2014-03-09 15:36:38.613,3.9839516,-0.5363012,4.596867
2014-03-09 15:36:38.633,4.213795,0.91937345,3.1028855
2014-03-09 15:36:38.654,4.175488,1.2641385,1.9919758
2014-03-09 15:36:38.664,4.9799395,1.9536686,2.4516625
2014-03-09 15:36:38.695,5.7843914,2.528277,3.1028855
2014-03-09 15:36:38.770,6.0525417,2.6431987,2.336741
2014-03-09 15:36:38.784,8.848969,3.8307228,8.695741
2014-03-09 15:36:38.798,7.73806,4.596867,8.350976
2014-03-09 15:36:38.801,-0.11492168,-0.38307226,-0.076614454
2014-03-09 15:36:38.821,1.0726024,-0.5746084,6.397307
2014-03-09 15:36:38.830,0.80445176,-2.2218192,6.5122285
2014-03-09 15:36:38.835,-0.45968673,-2.2218192,4.5202527
2014-03-09 15:36:38.836,0.61291564,-1.3790601,4.1371803
2014-03-09 15:36:38.840,2.0685902,-1.3790601,4.3287168
2014-03-09 15:36:38.846,3.2561142,-0.7661445,4.55856
2014-03-09 15:36:38.854,4.405331,-0.49799395,2.9496565
2014-03-09 15:36:38.874,4.865018,-0.5363012,1.6089035
2014-03-09 15:36:38.883,5.133168,0.19153613,1.6472107
2014-03-09 15:36:38.904,4.3287168,0.9576807,1.340753
2014-03-09 15:36:38.924,3.715801,0.9959879,0.34476504
2014-03-09 15:36:38.933,3.2561142,0.61291564,0.38307226
2014-03-09 15:36:38.953,3.2561142,0.19153613,0.34476504
2014-03-09 15:36:38.963,2.4516625,0.7661445,-2.0685902
2014-03-09 15:36:38.984,0.91937345,0.5363012,-5.209783
2014-03-09 15:36:39.004,0.11492168,-0.34476504,-0.91937345
2014-03-09 15:36:39.013,-0.5363012,-0.5363012,1.685518
2014-03-09 15:36:39.033,-1.2258313,-0.30645782,3.064578
2014-03-09 15:36:39.044,-1.8387469,-0.6895301,4.5202527
2014-03-09 15:36:39.064,-1.1109096,-1.1109096,5.056554
2014-03-09 15:36:39.081,1.0342951,-1.340753,5.5162406
2014-03-09 15:36:39.100,3.5242648,-0.842759,8.274361
2014-03-09 15:36:39.124,5.8226986,-2.4133554,7.699753
2014-03-09 15:36:39.127,9.232041,-2.834735,8.848969
2014-03-09 15:36:39.144,13.292608,-2.1068976,8.542512
2014-03-09 15:36:39.153,17.353174,-2.7581203,6.435614
2014-03-09 15:36:39.175,13.101071,-3.4093432,3.9839516
2014-03-09 15:36:39.193,9.423578,-0.842759,-1.6089035
2014-03-09 15:36:39.204,4.55856,-0.9959879,-0.7661445
2014-03-09 15:36:39.225,2.6431987,-2.1452048,1.5705963
2014-03-09 15:36:39.233,3.1794999,-3.371036,-0.842759
2014-03-09 15:36:39.253,5.171476,-4.0222588,-3.3327289
2014-03-09 15:36:39.275,5.592855,-2.183512,-2.719813
2014-03-09 15:36:39.284,5.861006,0.15322891,-7.0102224
2014-03-09 15:36:39.303,10.342952,2.0685902,-10.572795
2014-03-09 15:36:39.314,16.893488,3.6008794,-13.254301
2014-03-09 15:36:39.336,17.774553,1.8387469,-6.703765
2014-03-09 15:36:39.343,18.92377,4.2521024,-7.1634517
2014-03-09 15:36:39.363,19.115307,4.9416323,-2.1452048
2014-03-09 15:36:39.383,18.770542,3.0262709,2.0685902
2014-03-09 15:36:39.393,19.6133,1.1109096,-3.9456444
2014-03-09 15:36:39.414,19.6133,-2.2218192,-4.55856
2014-03-09 15:36:39.424,14.480132,-4.175488,-2.6048915
2014-03-09 15:36:39.444,2.9113493,-3.86903,-1.6089035
2014-03-09 15:36:39.464,-0.11492168,-3.2944214,-4.405331
2014-03-09 15:36:39.474,1.8387469,-1.532289,-3.715801
2014-03-09 15:36:39.493,1.9919758,1.1492168,-4.3287168
2014-03-09 15:36:39.504,1.2258313,2.6048915,-4.1371803
2014-03-09 15:36:39.524,1.1492168,2.9879637,-4.865018
2014-03-09 15:36:39.544,2.2218192,3.0262709,-6.0142345
2014-03-09 15:36:39.553,3.1411927,2.4899697,-5.554548
2014-03-09 15:36:39.567,4.4819455,0.5363012,-3.5625722
2014-03-09 15:36:39.584,5.707777,-0.9576807,-2.4133554
2014-03-09 15:36:39.604,8.274361,-0.842759,0.11492168
2014-03-09 15:36:39.617,9.921572,1.4173675,0.6512229
2014-03-09 15:36:39.634,10.994174,2.3750482,-2.9113493
2014-03-09 15:36:39.654,11.60709,2.4899697,-3.86903
2014-03-09 15:36:39.664,11.87524,1.2258313,-2.7581203
2014-03-09 15:36:39.684,13.101071,0.34476504,-1.340753
2014-03-09 15:36:39.694,14.211981,-0.9576807,0.4213795
2014-03-09 15:36:39.714,14.097059,-0.5746084,1.5705963
2014-03-09 15:36:39.734,13.828909,0.61291564,-1.685518
2014-03-09 15:36:39.745,12.641385,1.6089035,-4.213795
2014-03-09 15:36:39.765,7.5848308,1.9536686,-2.6048915
2014-03-09 15:36:39.775,5.439626,1.1109096,-4.213795
2014-03-09 15:36:39.794,7.086837,0.842759,-5.631162
2014-03-09 15:36:39.805,11.147403,1.4556746,-4.6351743
2014-03-09 15:36:39.837,14.824897,1.1109096,-4.1371803
2014-03-09 15:36:39.849,17.199945,0.7278373,-4.4436383
2014-03-09 15:36:39.858,17.96609,1.0342951,-3.217807
2014-03-09 15:36:39.875,15.322891,0.6512229,1.4939818
2014-03-09 15:36:39.887,12.679692,0.5746084,0.34476504
2014-03-09 15:36:39.907,5.0182467,0.842759,0.842759
2014-03-09 15:36:39.928,1.3024458,0.45968673,-1.9153614
2014-03-09 15:36:39.937,0.9576807,0.80445176,-5.9759274
2014-03-09 15:36:39.954,1.4939818,1.685518,-9.078813
2014-03-09 15:36:39.965,2.7581203,1.8387469,-8.00621
2014-03-09 15:36:39.985,2.9113493,-0.15322891,-7.431602
2014-03-09 15:36:40.005,3.5242648,0.5363012,-7.0102224
2014-03-09 15:36:40.016,5.861006,2.2984335,-3.6008794
2014-03-09 15:36:40.035,10.189722,3.2944214,-0.15322891
2014-03-09 15:36:40.045,16.893488,1.6472107,1.0726024
2014-03-09 15:36:40.083,19.6133,3.2561142,-3.5242648
2014-03-09 15:36:40.098,19.6133,5.056554,0.80445176
2014-03-09 15:36:40.109,18.272547,3.217807,5.363012
2014-03-09 15:36:40.118,14.288596,1.8387469,0.038307227
2014-03-09 15:36:40.123,8.580819,0.6512229,-2.3750482
2014-03-09 15:36:40.143,5.5162406,1.4939818,-4.596867
2014-03-09 15:36:40.153,4.865018,2.9879637,-7.8146744
2014-03-09 15:36:40.174,5.363012,2.4899697,-8.810662
2014-03-09 15:36:40.193,8.504205,2.4133554,-6.742072
2014-03-09 15:36:40.204,10.802638,2.1068976,-4.060566
2014-03-09 15:36:40.232,10.572795,2.4516625,-3.1794999
2014-03-09 15:36:40.236,9.500193,4.405331,-3.2944214
2014-03-09 15:36:40.254,7.431602,4.673482,0.19153613
2014-03-09 15:36:40.266,6.397307,4.2904096,2.7581203
2014-03-09 15:36:40.285,5.9759274,2.873042,0.30645782
2014-03-09 15:36:40.307,5.094861,1.9919758,-3.6008794
2014-03-09 15:36:40.321,5.2863975,1.5705963,-4.7500963
2014-03-09 15:36:40.335,7.8912888,1.4556746,-5.2480903
2014-03-09 15:36:40.345,11.990162,1.532289,-2.3750482
2014-03-09 15:36:40.366,14.326903,2.3750482,-0.19153613
2014-03-09 15:36:40.385,15.629349,4.0222588,0.4213795
2014-03-09 15:36:40.397,13.062764,3.2944214,-0.30645782
2014-03-09 15:36:40.416,8.619126,1.6089035,-1.4556746
2014-03-09 15:36:40.423,7.73806,2.030283,-2.4516625
2014-03-09 15:36:40.444,10.994174,4.4436383,-3.5242648
2014-03-09 15:36:40.463,13.330915,5.2863975,-3.1411927
2014-03-09 15:36:40.474,13.637373,4.405331,-2.566584
2014-03-09 15:36:40.493,13.369223,3.9073372,-2.566584
2014-03-09 15:36:40.504,13.484144,3.6774938,-2.336741
2014-03-09 15:36:40.524,13.713987,3.217807,-1.4173675
2014-03-09 15:36:40.533,11.262324,1.5705963,-1.8770541
2014-03-09 15:36:40.553,8.695741,0.80445176,-3.3327289
2014-03-09 15:36:40.573,8.542512,1.340753,-4.865018
2014-03-09 15:36:40.584,9.691729,2.1452048,-4.9799395
2014-03-09 15:36:40.604,9.844957,3.5625722,-2.9113493
2014-03-09 15:36:40.614,13.637373,5.171476,0.38307226
2014-03-09 15:36:40.633,17.314867,3.9456444,0.0
2014-03-09 15:36:40.653,17.085024,2.9496565,0.34476504
2014-03-09 15:36:40.664,16.050728,1.3790601,-1.532289
2014-03-09 15:36:40.684,12.871228,1.1109096,-1.685518
2014-03-09 15:36:40.693,10.726024,0.6895301,-1.8387469
2014-03-09 15:36:40.714,10.611102,-0.076614454,-2.9113493
2014-03-09 15:36:40.734,10.304645,0.38307226,-4.865018
2014-03-09 15:36:40.744,10.879252,3.3327289,-2.528277
2014-03-09 15:36:40.767,12.641385,5.746084,-0.11492168
2014-03-09 15:36:40.778,14.633361,5.592855,1.0342951
2014-03-09 15:36:40.794,18.157625,2.7964275,2.4516625
2014-03-09 15:36:40.805,18.157625,-1.6089035,2.030283
2014-03-09 15:36:40.826,15.05474,-3.1794999,0.7661445
2014-03-09 15:36:40.845,10.266336,-1.4173675,-1.6089035
2014-03-09 15:36:40.858,7.201759,-1.2258313,-3.6391866
2014-03-09 15:36:40.876,5.899313,-0.6512229,-5.3247046
2014-03-09 15:36:40.885,4.1371803,0.038307227,-4.405331
2014-03-09 15:36:40.905,1.6089035,0.45968673,-1.340753
2014-03-09 15:36:40.926,-0.8810662,1.3024458,-0.34476504
2014-03-09 15:36:40.937,-1.7621324,1.0726024,0.15322891
2014-03-09 15:36:40.955,-0.6895301,1.3790601,1.3024458
2014-03-09 15:36:40.965,2.7964275,0.7661445,1.0726024
2014-03-09 15:36:40.985,6.090849,-1.0342951,0.49799395
2014-03-09 15:36:41.005,9.921572,-2.1452048,0.5746084
2014-03-09 15:36:41.015,14.595054,-2.1068976,1.8770541
2014-03-09 15:36:41.034,19.268536,-1.1109096,1.7621324
2014-03-09 15:36:41.045,19.6133,-0.34476504,-1.2258313
2014-03-09 15:36:41.065,19.536686,-1.1109096,-1.3790601
2014-03-09 15:36:41.076,17.621325,-1.6089035,0.6512229
2014-03-09 15:36:41.094,16.472107,-1.8387469,1.4173675
2014-03-09 15:36:41.114,15.897499,-1.9919758,0.9576807
2014-03-09 15:36:41.125,13.713987,-0.91937345,-1.7621324
2014-03-09 15:36:41.145,10.151415,-0.91937345,-3.3327289
2014-03-09 15:36:41.156,6.3206925,-0.7278373,-1.8004397
2014-03-09 15:36:41.176,2.9113493,-0.49799395,-0.842759
2014-03-09 15:36:41.194,1.7238252,0.11492168,-1.4556746
2014-03-09 15:36:41.205,2.4899697,1.4556746,-3.6391866
2014-03-09 15:36:41.226,3.1794999,2.2984335,-4.8267107
2014-03-09 15:36:41.236,2.1068976,1.532289,-4.596867
2014-03-09 15:36:41.255,1.3790601,-0.038307227,-4.098873
2014-03-09 15:36:41.265,0.11492168,-1.685518,-0.9576807
2014-03-09 15:36:41.285,-0.22984336,-1.9536686,1.8387469
2014-03-09 15:36:41.305,1.5705963,-1.340753,2.2601264
2014-03-09 15:36:41.317,4.8267107,-0.4213795,0.8810662
2014-03-09 15:36:41.335,10.189722,0.15322891,-3.86903
2014-03-09 15:36:41.345,18.08101,0.9959879,-11.492168
2014-03-09 15:36:41.365,19.6133,1.0342951,-9.423578
2014-03-09 15:36:41.389,18.387468,-3.2944214,-2.2984335
2014-03-09 15:36:41.405,16.510414,-7.2783732,-5.133168
2014-03-09 15:36:41.417,18.50239,-7.431602,-10.955867
2014-03-09 15:36:41.424,18.732235,-4.0222588,-10.419566
2014-03-09 15:36:41.443,9.80665,-2.1068976,-1.6089035
2014-03-09 15:36:41.464,6.7803793,-2.1452048,-3.9456444
2014-03-09 15:36:41.473,7.6614456,-0.4213795,-8.0445175
2014-03-09 15:36:41.493,3.1411927,-0.15322891,-4.596867
2014-03-09 15:36:41.504,0.6895301,0.22984336,-2.7964275
2014-03-09 15:36:41.525,2.4133554,0.49799395,-3.4859576
2014-03-09 15:36:41.533,1.9919758,1.3024458,-1.8387469
2014-03-09 15:36:41.554,0.9576807,0.22984336,-0.7278373
2014-03-09 15:36:41.573,5.631162,-1.6472107,-3.6391866
2014-03-09 15:36:41.583,18.004396,-0.9576807,-13.254301
2014-03-09 15:36:41.604,13.982138,-2.719813,1.2641385
2014-03-09 15:36:41.627,6.244078,-5.899313,-3.2944214
2014-03-09 15:36:41.633,15.705963,-3.064578,-9.308656
2014-03-09 15:36:41.653,8.848969,-1.6472107,-4.3287168
2014-03-09 15:36:41.664,13.101071,-3.2561142,-10.342952
2014-03-09 15:36:41.684,12.334928,-6.435614,-5.746084
2014-03-09 15:36:41.693,13.101071,-8.695741,-10.649409
2014-03-09 15:36:41.713,19.574993,-6.4739213,-18.617311
2014-03-09 15:36:41.733,9.80665,-5.592855,-5.2863975
2014-03-09 15:36:41.744,6.244078,-7.0102224,-11.070788
2014-03-09 15:36:41.767,16.280571,-3.1028855,-14.173674
2014-03-09 15:36:41.778,4.865018,-0.842759,-0.9959879
2014-03-09 15:36:41.794,2.4133554,-0.45968673,-2.681506
2014-03-09 15:36:41.805,2.4516625,-0.38307226,-3.6774938
2014-03-09 15:36:41.826,3.4476504,-0.22984336,-4.9416323
2014-03-09 15:36:41.845,5.554548,-1.1109096,-6.205771
2014-03-09 15:36:41.856,10.266336,-3.4093432,-10.994174
2014-03-09 15:36:41.875,16.318878,-6.0525417,-11.415554
2014-03-09 15:36:41.885,10.419566,-5.8226986,-3.4859576
2014-03-09 15:36:41.905,4.9799395,-6.5505357,-1.6472107
2014-03-09 15:36:41.926,6.090849,-3.371036,-2.6048915
2014-03-09 15:36:41.937,6.933608,1.4939818,-3.064578
2014-03-09 15:36:41.956,9.385271,0.49799395,-6.4739213
2014-03-09 15:36:41.965,10.189722,-1.532289,-5.5162406
2014-03-09 15:36:41.985,1.4939818,-1.9153614,0.22984336
2014-03-09 15:36:42.005,-0.34476504,-2.183512,-0.5363012
2014-03-09 15:36:42.015,5.707777,-2.528277,-6.895301
2014-03-09 15:36:42.034,9.270349,-1.8770541,-10.342952
2014-03-09 15:36:42.045,8.848969,-0.9576807,-5.861006
2014-03-09 15:36:42.065,10.0748005,-2.3750482,-3.371036
2014-03-09 15:36:42.076,12.98615,-3.8307228,-5.8226986
2014-03-09 15:36:42.094,15.820885,-3.5625722,-9.844957
2014-03-09 15:36:42.114,15.093047,-3.371036,-9.730036
2014-03-09 15:36:42.126,10.0748005,-5.707777,-4.2904096
2014-03-09 15:36:42.145,5.554548,-7.5082164,-5.056554
2014-03-09 15:36:42.156,7.0485296,-5.707777,-8.236053
2014-03-09 15:36:42.175,4.9416323,-3.2561142,-6.0142345
2014-03-09 15:36:42.194,9.346964,-3.4093432,-8.236053
2014-03-09 15:36:42.205,11.990162,-3.5242648,-9.576807
2014-03-09 15:36:42.226,8.312668,-4.4819455,-6.8569937
2014-03-09 15:36:42.236,6.933608,-4.9416323,-5.3247046
2014-03-09 15:36:42.255,8.00621,-4.7884035,-7.8529816
2014-03-09 15:36:42.265,9.155427,-4.098873,-9.691729
2014-03-09 15:36:42.285,8.465898,-4.55856,-9.423578
2014-03-09 15:36:42.305,5.93762,-4.367024,-7.240066
2014-03-09 15:36:42.315,3.6774938,-3.217807,-5.401319
2014-03-09 15:36:42.340,4.1371803,-0.9959879,-5.66947
2014-03-09 15:36:42.345,5.171476,0.5363012,-6.742072
2014-03-09 15:36:42.365,6.7803793,0.4213795,-7.5848308
2014-03-09 15:36:42.385,8.312668,-0.49799395,-7.8146744
2014-03-09 15:36:42.397,8.542512,-2.183512,-6.3589997
2014-03-09 15:36:42.416,8.619126,-3.1028855,-3.9456444
2014-03-09 15:36:42.423,7.5465236,-3.3327289,-1.4556746
2014-03-09 15:36:42.443,6.7803793,-4.098873,-1.5705963
2014-03-09 15:36:42.464,7.5082164,-4.673482,-2.834735
2014-03-09 15:36:42.474,7.3549876,-3.5242648,-1.685518
2014-03-09 15:36:42.493,6.933608,-1.1875241,-1.9919758
2014-03-09 15:36:42.504,7.1634517,0.038307227,-1.6089035
2014-03-09 15:36:42.525,9.040505,-0.2681506,-1.532289
2014-03-09 15:36:42.533,10.572795,-1.1875241,-1.685518
2014-03-09 15:36:42.557,11.60709,-2.1452048,-2.2218192
2014-03-09 15:36:42.576,11.683704,-3.6391866,-0.9576807
2014-03-09 15:36:42.585,13.713987,-4.5202527,-0.91937345
2014-03-09 15:36:42.605,16.395493,-4.7884035,-2.3750482
2014-03-09 15:36:42.617,16.816874,-3.9839516,-2.4516625
2014-03-09 15:36:42.636,10.381259,-1.1492168,-1.340753
2014-03-09 15:36:42.660,6.8569937,0.2681506,-0.8810662
2014-03-09 15:36:42.665,5.631162,1.9919758,-4.405331
2014-03-09 15:36:42.684,3.2944214,3.6391866,-4.8267107
2014-03-09 15:36:42.693,0.49799395,2.0685902,-2.1452048
2014-03-09 15:36:42.713,-0.5746084,-0.038307227,-1.0342951
2014-03-09 15:36:42.733,0.38307226,-0.9576807,-2.2218192
