Date,accelX-gX(m/s^2),accelY-gY(m/s^2),accelZ-gZ(m/s^2)
2014-03-09 15:34:16.078,0.22984336,5.133168,8.695741
2014-03-09 15:34:16.098,0.38307226,4.9799395,8.810662
2014-03-09 15:34:16.120,0.30645782,4.7500963,8.6574335
2014-03-09 15:34:16.139,0.11492168,4.673482,8.42759
2014-03-09 15:34:16.159,0.0,4.865018,8.389283
2014-03-09 15:34:16.179,0.0,5.0182467,8.274361
2014-03-09 15:34:16.199,0.038307227,5.0182467,8.312668
2014-03-09 15:34:16.220,0.038307227,4.8267107,8.197746
2014-03-09 15:34:16.241,-0.076614454,4.7500963,8.00621
2014-03-09 15:34:16.259,-0.15322891,4.903325,7.8529816
2014-03-09 15:34:16.279,-0.22984336,5.133168,7.8912888
2014-03-09 15:34:16.300,0.0,5.0182467,8.465898
2014-03-09 15:34:16.320,0.0,4.9416323,8.465898
2014-03-09 15:34:16.340,0.0,4.7500963,8.350976
2014-03-09 15:34:16.359,0.038307227,4.711789,8.082825
2014-03-09 15:34:16.379,0.038307227,5.0182467,7.8912888
2014-03-09 15:34:16.401,0.076614454,5.056554,8.350976
2014-03-09 15:34:16.420,0.22984336,4.9416323,8.848969
2014-03-09 15:34:16.440,0.2681506,4.7884035,8.848969
2014-03-09 15:34:16.460,-0.038307227,4.9799395,8.274361
2014-03-09 15:34:16.480,0.11492168,5.056554,8.0445175
2014-03-09 15:34:16.500,0.15322891,5.171476,8.0445175
2014-03-09 15:34:16.520,0.15322891,5.171476,8.389283
2014-03-09 15:34:16.549,0.19153613,4.903325,8.887277
2014-03-09 15:34:16.560,0.076614454,4.9416323,8.6574335
2014-03-09 15:34:16.580,0.038307227,5.0182467,8.542512
2014-03-09 15:34:16.602,0.076614454,5.171476,8.159439
2014-03-09 15:34:16.619,0.11492168,5.094861,8.082825
2014-03-09 15:34:16.639,0.076614454,5.0182467,8.159439
2014-03-09 15:34:16.658,0.076614454,5.0182467,8.389283
2014-03-09 15:34:16.679,0.0,4.903325,8.6574335
2014-03-09 15:34:16.699,0.076614454,4.7884035,8.695741
2014-03-09 15:34:16.720,0.076614454,4.711789,8.772355
2014-03-09 15:34:16.740,0.15322891,4.55856,8.810662
2014-03-09 15:34:16.760,0.0,4.8267107,8.389283
2014-03-09 15:34:16.780,-0.038307227,4.865018,8.312668
2014-03-09 15:34:16.803,0.0,4.673482,8.465898
2014-03-09 15:34:16.821,0.076614454,4.5202527,8.772355
2014-03-09 15:34:16.842,0.038307227,4.405331,8.848969
2014-03-09 15:34:16.861,0.0,4.4819455,8.734048
2014-03-09 15:34:16.881,-0.038307227,4.596867,8.6574335
2014-03-09 15:34:16.901,-0.076614454,4.7500963,8.389283
2014-03-09 15:34:16.921,-0.11492168,4.711789,8.504205
2014-03-09 15:34:16.942,-0.076614454,4.6351743,8.6574335
2014-03-09 15:34:16.961,-0.076614454,4.4819455,8.695741
2014-03-09 15:34:16.981,-0.038307227,4.5202527,8.734048
2014-03-09 15:34:17.001,-0.038307227,4.865018,8.159439
2014-03-09 15:34:17.021,-0.076614454,4.903325,7.8912888
2014-03-09 15:34:17.042,0.0,4.673482,8.236053
2014-03-09 15:34:17.061,0.0,4.5202527,8.197746
2014-03-09 15:34:17.081,-0.30645782,4.2904096,7.393295
2014-03-09 15:34:17.101,-0.15322891,4.405331,7.086837
2014-03-09 15:34:17.142,-0.2681506,4.9799395,7.6614456
2014-03-09 15:34:17.157,-0.30645782,4.098873,5.554548
2014-03-09 15:34:17.173,-0.80445176,3.7924154,6.703765
2014-03-09 15:34:17.179,-2.030283,0.30645782,6.435614
2014-03-09 15:34:17.198,-1.0726024,-1.685518,6.2823853
2014-03-09 15:34:17.218,0.22984336,-1.4939818,9.576807
2014-03-09 15:34:17.240,0.22984336,-2.1068976,10.840945
2014-03-09 15:34:17.259,1.2258313,-1.6472107,14.671668
2014-03-09 15:34:17.284,1.7238252,-1.6472107,15.1696615
2014-03-09 15:34:17.299,0.9959879,-3.1028855,14.441825
2014-03-09 15:34:17.320,0.49799395,-2.9113493,10.534488
2014-03-09 15:34:17.345,0.49799395,-2.3750482,8.6574335
2014-03-09 15:34:17.360,1.685518,-1.6472107,8.810662
2014-03-09 15:34:17.393,3.0262709,-1.4939818,16.701952
2014-03-09 15:34:17.402,2.2601264,-1.9153614,17.27656
2014-03-09 15:34:17.422,1.3024458,-2.3750482,13.177686
2014-03-09 15:34:17.442,0.5746084,-1.9919758,7.431602
2014-03-09 15:34:17.462,0.19153613,-0.30645782,7.086837
2014-03-09 15:34:17.481,-0.80445176,1.0726024,10.534488
2014-03-09 15:34:17.501,-0.22984336,1.8004397,12.449849
2014-03-09 15:34:17.521,0.9959879,1.7238252,11.836933
2014-03-09 15:34:17.545,0.38307226,1.685518,9.308656
2014-03-09 15:34:17.561,-0.4213795,2.528277,8.810662
2014-03-09 15:34:17.581,-0.19153613,3.064578,8.42759
2014-03-09 15:34:17.601,0.15322891,3.9839516,8.542512
2014-03-09 15:34:17.621,0.5363012,4.175488,7.967903
2014-03-09 15:34:17.645,0.45968673,3.5625722,7.8912888
2014-03-09 15:34:17.665,0.49799395,3.2944214,8.542512
2014-03-09 15:34:17.681,0.38307226,3.4093432,8.504205
2014-03-09 15:34:17.701,0.45968673,3.4859576,8.42759
2014-03-09 15:34:17.721,0.49799395,3.6391866,8.350976
2014-03-09 15:34:17.741,0.49799395,3.6774938,8.504205
2014-03-09 15:34:17.761,0.61291564,3.2944214,8.695741
2014-03-09 15:34:17.781,0.6895301,3.6774938,9.078813
2014-03-09 15:34:17.801,0.842759,4.060566,9.576807
2014-03-09 15:34:17.821,1.2641385,4.405331,10.611102
2014-03-09 15:34:17.842,0.11492168,3.4859576,8.542512
2014-03-09 15:34:17.861,-0.22984336,3.7924154,8.350976
2014-03-09 15:34:17.915,-0.15322891,4.596867,8.42759
2014-03-09 15:34:17.927,0.0,5.2863975,8.42759
2014-03-09 15:34:17.934,-0.30645782,5.209783,7.6231384
2014-03-09 15:34:17.951,-0.076614454,5.056554,7.776367
2014-03-09 15:34:17.961,0.076614454,5.171476,8.350976
2014-03-09 15:34:17.981,-0.076614454,5.094861,8.236053
2014-03-09 15:34:17.999,0.49799395,5.209783,8.963891
2014-03-09 15:34:18.023,0.19153613,5.056554,8.772355
2014-03-09 15:34:18.054,-0.45968673,4.711789,8.350976
2014-03-09 15:34:18.059,-0.61291564,4.55856,7.967903
2014-03-09 15:34:18.079,-0.38307226,5.0182467,7.929596
2014-03-09 15:34:18.099,-0.5746084,5.056554,8.00621
2014-03-09 15:34:18.119,-0.6512229,5.133168,7.6614456
2014-03-09 15:34:18.139,-0.5363012,4.865018,8.082825
2014-03-09 15:34:18.159,-0.38307226,4.7500963,8.619126
2014-03-09 15:34:18.179,-0.076614454,4.6351743,8.810662
2014-03-09 15:34:18.200,0.038307227,4.673482,8.810662
2014-03-09 15:34:18.227,-0.038307227,5.133168,8.542512
2014-03-09 15:34:18.241,0.0,5.2863975,8.389283
2014-03-09 15:34:18.261,0.038307227,5.171476,8.695741
2014-03-09 15:34:18.280,0.19153613,5.171476,9.040505
2014-03-09 15:34:18.303,-0.19153613,4.9416323,8.6574335
2014-03-09 15:34:18.321,-0.038307227,4.6351743,8.504205
2014-03-09 15:34:18.340,0.038307227,4.405331,8.619126
2014-03-09 15:34:18.362,-0.076614454,4.405331,8.772355
2014-03-09 15:34:18.379,-0.4213795,4.2904096,8.695741
2014-03-09 15:34:18.400,-0.45968673,4.3287168,8.542512
2014-03-09 15:34:18.419,-0.34476504,4.4436383,8.619126
2014-03-09 15:34:18.442,-0.11492168,4.6351743,8.887277
2014-03-09 15:34:18.459,-0.2681506,4.4436383,8.772355
2014-03-09 15:34:18.481,-0.11492168,4.5202527,8.734048
2014-03-09 15:34:18.499,-0.076614454,4.865018,8.887277
2014-03-09 15:34:18.523,-0.076614454,4.9416323,8.925584
2014-03-09 15:34:18.540,-0.19153613,4.7500963,8.619126
2014-03-09 15:34:18.560,-0.22984336,4.673482,8.465898
2014-03-09 15:34:18.583,-0.2681506,4.7500963,8.42759
2014-03-09 15:34:18.599,-0.15322891,4.8267107,8.542512
2014-03-09 15:34:18.619,-0.19153613,4.711789,8.619126
2014-03-09 15:34:18.640,-0.076614454,4.55856,8.848969
2014-03-09 15:34:18.659,-0.11492168,4.405331,8.925584
2014-03-09 15:34:18.682,-0.22984336,4.367024,8.734048
2014-03-09 15:34:18.699,-0.11492168,4.4436383,8.810662
2014-03-09 15:34:18.719,-0.076614454,4.596867,8.963891
2014-03-09 15:34:18.739,-0.19153613,4.8267107,9.078813
2014-03-09 15:34:18.759,0.076614454,5.0182467,9.193734
2014-03-09 15:34:18.779,0.038307227,4.711789,8.734048
2014-03-09 15:34:18.799,-0.11492168,4.367024,8.504205
2014-03-09 15:34:18.819,-0.19153613,4.2904096,8.504205
2014-03-09 15:34:18.839,-0.34476504,4.596867,8.350976
2014-03-09 15:34:18.859,-0.30645782,4.7884035,8.580819
2014-03-09 15:34:18.903,-0.30645782,4.596867,8.619126
2014-03-09 15:34:18.915,-0.30645782,4.4819455,8.695741
2014-03-09 15:34:18.931,-0.19153613,4.4436383,8.925584
2014-03-09 15:34:18.951,-0.076614454,4.673482,8.848969
2014-03-09 15:34:18.971,-0.15322891,4.865018,8.695741
2014-03-09 15:34:18.994,-0.19153613,4.865018,8.6574335
2014-03-09 15:34:19.044,-0.15322891,4.865018,8.734048
2014-03-09 15:34:19.056,-0.22984336,4.55856,8.695741
2014-03-09 15:34:19.065,-0.4213795,4.711789,8.274361
2014-03-09 15:34:19.076,-0.34476504,4.9799395,8.082825
2014-03-09 15:34:19.089,-0.15322891,5.171476,8.350976
2014-03-09 15:34:19.109,0.038307227,4.9799395,8.810662
2014-03-09 15:34:19.129,0.0,4.9416323,8.695741
2014-03-09 15:34:19.149,-0.076614454,5.0182467,8.504205
2014-03-09 15:34:19.169,-0.15322891,5.056554,8.465898
2014-03-09 15:34:19.189,-0.11492168,4.903325,8.6574335
2014-03-09 15:34:19.208,-0.11492168,4.865018,8.734048
2014-03-09 15:34:19.229,-0.076614454,4.903325,8.6574335
2014-03-09 15:34:19.249,-0.15322891,5.0182467,8.542512
2014-03-09 15:34:19.277,-0.11492168,4.9799395,8.6574335
2014-03-09 15:34:19.291,-0.11492168,4.9799395,8.619126
2014-03-09 15:34:19.311,-0.076614454,4.9799395,8.695741
2014-03-09 15:34:19.331,-0.038307227,5.0182467,8.504205
2014-03-09 15:34:19.349,-0.076614454,5.056554,8.580819
2014-03-09 15:34:19.375,-0.076614454,5.0182467,8.504205
2014-03-09 15:34:19.389,-0.19153613,5.056554,8.465898
2014-03-09 15:34:19.409,-0.22984336,4.903325,8.350976
2014-03-09 15:34:19.429,-0.19153613,4.7884035,8.389283
2014-03-09 15:34:19.449,-0.22984336,4.7500963,8.312668
2014-03-09 15:34:19.475,-0.076614454,5.056554,8.312668
2014-03-09 15:34:19.492,0.0,5.056554,8.465898
2014-03-09 15:34:19.511,-0.038307227,5.0182467,8.504205
2014-03-09 15:34:19.531,-0.11492168,4.9416323,8.389283
2014-03-09 15:34:19.554,-0.076614454,4.9416323,8.350976
2014-03-09 15:34:19.571,-0.038307227,5.094861,8.42759
2014-03-09 15:34:19.595,-0.076614454,5.133168,8.465898
2014-03-09 15:34:19.622,-0.11492168,5.056554,8.465898
2014-03-09 15:34:19.653,-0.19153613,5.0182467,8.504205
2014-03-09 15:34:19.663,-0.22984336,4.9799395,8.542512
2014-03-09 15:34:19.677,-0.22984336,5.0182467,8.580819
2014-03-09 15:34:19.689,-0.2681506,4.9799395,8.580819
2014-03-09 15:34:19.709,-0.34476504,5.056554,8.42759
2014-03-09 15:34:19.730,-0.45968673,5.0182467,8.312668
2014-03-09 15:34:19.750,-0.34476504,5.0182467,8.542512
2014-03-09 15:34:19.770,-0.22984336,5.0182467,8.734048
2014-03-09 15:34:19.791,-0.22984336,5.056554,8.695741
2014-03-09 15:34:19.811,-0.30645782,5.2480903,8.350976
2014-03-09 15:34:19.831,-0.2681506,5.056554,8.389283
2014-03-09 15:34:19.851,-0.15322891,5.0182467,8.42759
2014-03-09 15:34:19.871,-0.076614454,5.056554,8.580819
2014-03-09 15:34:19.892,-0.038307227,4.9799395,8.42759
2014-03-09 15:34:19.911,0.0,5.0182467,8.350976
2014-03-09 15:34:19.931,0.076614454,4.9416323,8.504205
2014-03-09 15:34:19.951,-0.076614454,4.9416323,8.42759
2014-03-09 15:34:19.971,-0.11492168,5.0182467,8.542512
2014-03-09 15:34:19.994,-0.076614454,4.9799395,8.619126
2014-03-09 15:34:20.014,-0.15322891,5.056554,8.504205
2014-03-09 15:34:20.031,0.0,4.903325,8.887277
2014-03-09 15:34:20.052,-0.076614454,4.7884035,8.963891
2014-03-09 15:34:20.071,-0.076614454,4.7500963,8.619126
2014-03-09 15:34:20.093,-0.2681506,4.8267107,8.389283
2014-03-09 15:34:20.123,-0.15322891,4.9799395,8.695741
2014-03-09 15:34:20.129,-0.2681506,5.0182467,8.6574335
2014-03-09 15:34:20.148,-0.22984336,4.9416323,8.695741
2014-03-09 15:34:20.173,-0.34476504,4.9799395,8.42759
2014-03-09 15:34:20.190,-0.34476504,5.171476,8.389283
2014-03-09 15:34:20.209,-0.34476504,5.056554,8.42759
2014-03-09 15:34:20.230,-0.4213795,4.9799395,8.389283
2014-03-09 15:34:20.249,-0.38307226,4.865018,8.542512
2014-03-09 15:34:20.270,-0.22984336,4.7884035,8.734048
2014-03-09 15:34:20.290,-0.19153613,4.8267107,8.580819
2014-03-09 15:34:20.310,-0.19153613,4.9799395,8.42759
2014-03-09 15:34:20.330,-0.15322891,4.9799395,8.580819
2014-03-09 15:34:20.350,-0.15322891,4.711789,8.772355
2014-03-09 15:34:20.372,-0.15322891,4.711789,8.695741
2014-03-09 15:34:20.426,-0.19153613,4.865018,8.580819
2014-03-09 15:34:20.437,-0.22984336,5.056554,8.389283
2014-03-09 15:34:20.451,-0.15322891,5.056554,8.504205
2014-03-09 15:34:20.458,-0.15322891,4.9799395,8.580819
2014-03-09 15:34:20.469,-0.19153613,4.8267107,8.619126
2014-03-09 15:34:20.494,-0.2681506,4.8267107,8.42759
2014-03-09 15:34:20.508,-0.15322891,4.8267107,8.6574335
2014-03-09 15:34:20.529,-0.076614454,4.7884035,8.772355
2014-03-09 15:34:20.548,-0.11492168,4.711789,8.772355
2014-03-09 15:34:20.568,-0.2681506,4.7884035,8.580819
2014-03-09 15:34:20.589,-0.2681506,4.865018,8.542512
2014-03-09 15:34:20.608,-0.30645782,4.903325,8.580819
2014-03-09 15:34:20.628,-0.2681506,4.865018,8.6574335
2014-03-09 15:34:20.649,-0.30645782,4.7884035,8.619126
2014-03-09 15:34:20.672,-0.2681506,4.7884035,8.619126
2014-03-09 15:34:20.689,-0.19153613,4.8267107,8.695741
2014-03-09 15:34:20.709,-0.11492168,4.8267107,8.734048
2014-03-09 15:34:20.729,-0.15322891,4.865018,8.6574335
2014-03-09 15:34:20.751,-0.19153613,4.8267107,8.619126
2014-03-09 15:34:20.770,-0.19153613,4.7884035,8.580819
2014-03-09 15:34:20.790,-0.22984336,4.7884035,8.542512
2014-03-09 15:34:20.809,-0.076614454,4.8267107,8.580819
2014-03-09 15:34:20.829,-0.076614454,4.8267107,8.6574335
2014-03-09 15:34:20.859,-0.15322891,4.7884035,8.619126
2014-03-09 15:34:20.871,-0.2681506,4.7500963,8.542512
2014-03-09 15:34:20.896,-0.34476504,4.673482,8.580819
2014-03-09 15:34:20.911,-0.2681506,4.711789,8.695741
2014-03-09 15:34:20.930,-0.30645782,4.711789,8.619126
2014-03-09 15:34:20.950,-0.19153613,4.8267107,8.772355
2014-03-09 15:34:20.970,-0.19153613,4.7500963,8.695741
2014-03-09 15:34:20.994,-0.22984336,4.711789,8.6574335
2014-03-09 15:34:21.012,-0.19153613,4.7500963,8.580819
2014-03-09 15:34:21.032,-0.076614454,4.865018,8.772355
2014-03-09 15:34:21.052,-0.19153613,4.865018,8.580819
2014-03-09 15:34:21.072,-0.2681506,4.903325,8.542512
2014-03-09 15:34:21.094,-0.19153613,4.8267107,8.6574335
2014-03-09 15:34:21.118,-0.34476504,4.6351743,8.542512
2014-03-09 15:34:21.155,-0.30645782,4.673482,8.619126
2014-03-09 15:34:21.175,-0.19153613,4.711789,8.734048
2014-03-09 15:34:21.179,-0.19153613,4.7500963,8.734048
2014-03-09 15:34:21.189,-0.15322891,4.7500963,8.734048
2014-03-09 15:34:21.209,-0.15322891,4.711789,8.695741
2014-03-09 15:34:21.229,-0.22984336,4.673482,8.772355
2014-03-09 15:34:21.248,-0.15322891,4.6351743,8.925584
2014-03-09 15:34:21.273,-0.038307227,4.596867,9.078813
2014-03-09 15:34:21.290,-0.22984336,4.596867,8.504205
2014-03-09 15:34:21.309,-0.4213795,4.673482,8.0445175
2014-03-09 15:34:21.329,-0.34476504,4.865018,7.8529816
2014-03-09 15:34:21.350,0.038307227,4.673482,8.848969
2014-03-09 15:34:21.369,0.038307227,4.6351743,8.810662
2014-03-09 15:34:21.430,0.15322891,4.7884035,8.6574335
2014-03-09 15:34:21.432,0.30645782,5.171476,8.734048
2014-03-09 15:34:21.436,0.5363012,5.209783,8.887277
2014-03-09 15:34:21.449,0.45968673,4.9416323,9.002198
2014-03-09 15:34:21.469,0.19153613,4.673482,8.772355
2014-03-09 15:34:21.489,0.11492168,4.4819455,8.42759
2014-03-09 15:34:21.516,0.15322891,4.6351743,8.542512
2014-03-09 15:34:21.529,0.15322891,4.673482,8.542512
2014-03-09 15:34:21.549,0.2681506,4.711789,8.6574335
2014-03-09 15:34:21.569,0.30645782,4.7884035,8.619126
2014-03-09 15:34:21.589,0.38307226,4.596867,8.848969
2014-03-09 15:34:21.608,0.49799395,4.5202527,9.232041
2014-03-09 15:34:21.629,0.61291564,4.4819455,9.5385
2014-03-09 15:34:21.649,0.34476504,3.9456444,9.270349
2014-03-09 15:34:21.669,0.34476504,4.0222588,9.308656
2014-03-09 15:34:21.689,0.49799395,4.175488,9.461885
2014-03-09 15:34:21.709,0.5746084,4.175488,9.653421
2014-03-09 15:34:21.729,0.11492168,3.5625722,9.615114
2014-03-09 15:34:21.749,0.34476504,3.5242648,9.461885
2014-03-09 15:34:21.768,0.22984336,3.5242648,8.963891
2014-03-09 15:34:21.789,0.19153613,3.7541082,8.734048
2014-03-09 15:34:21.808,0.076614454,3.9839516,8.42759
2014-03-09 15:34:21.829,0.0,3.9839516,8.42759
2014-03-09 15:34:21.848,0.0,3.86903,8.542512
2014-03-09 15:34:21.869,0.30645782,4.098873,9.040505
2014-03-09 15:34:21.889,0.80445176,4.060566,8.350976
2014-03-09 15:34:21.909,0.34476504,4.55856,7.8146744
2014-03-09 15:34:21.929,0.5746084,4.213795,7.929596
2014-03-09 15:34:21.949,2.9496565,2.2218192,8.810662
2014-03-09 15:34:21.969,2.183512,4.55856,9.078813
2014-03-09 15:34:21.989,1.2258313,5.4779334,7.6614456
2014-03-09 15:34:22.027,0.842759,4.673482,5.66947
2014-03-09 15:34:22.033,-0.22984336,4.060566,10.611102
2014-03-09 15:34:22.057,0.30645782,3.2561142,12.679692
2014-03-09 15:34:22.080,1.2258313,1.9153614,10.381259
2014-03-09 15:34:22.127,1.8770541,-0.11492168,10.611102
2014-03-09 15:34:22.132,-0.49799395,2.0685902,9.615114
2014-03-09 15:34:22.135,-0.38307226,2.7964275,10.189722
2014-03-09 15:34:22.152,-0.30645782,3.4093432,11.645397
2014-03-09 15:34:22.173,0.4213795,2.4133554,10.649409
2014-03-09 15:34:22.190,0.15322891,-0.49799395,9.308656
2014-03-09 15:34:22.209,0.076614454,2.2218192,9.002198
2014-03-09 15:34:22.229,-1.3024458,4.8267107,8.6574335
2014-03-09 15:34:22.251,-1.0342951,3.9839516,9.232041
2014-03-09 15:34:22.269,0.34476504,-0.30645782,8.197746
2014-03-09 15:34:22.289,0.22984336,0.2681506,9.232041
2014-03-09 15:34:22.308,-0.038307227,0.842759,10.113108
2014-03-09 15:34:22.328,-0.6512229,4.7500963,8.619126
2014-03-09 15:34:22.348,0.6512229,3.5242648,8.810662
2014-03-09 15:34:22.368,1.0342951,1.8004397,9.040505
2014-03-09 15:34:22.389,1.5705963,1.9536686,10.036493
2014-03-09 15:34:22.408,2.2984335,1.7238252,10.457873
2014-03-09 15:34:22.429,0.8810662,4.1371803,9.308656
2014-03-09 15:34:22.448,-0.15322891,3.6391866,8.504205
2014-03-09 15:34:22.468,-0.038307227,1.9153614,8.350976
2014-03-09 15:34:22.489,2.7581203,1.532289,10.381259
2014-03-09 15:34:22.509,1.6089035,2.681506,11.224017
2014-03-09 15:34:22.529,0.34476504,1.9919758,10.955867
2014-03-09 15:34:22.549,0.076614454,1.5705963,10.228029
2014-03-09 15:34:22.569,0.45968673,0.0,9.385271
2014-03-09 15:34:22.589,0.7278373,0.8810662,10.0748005
2014-03-09 15:34:22.609,1.3790601,1.7238252,10.840945
2014-03-09 15:34:22.629,1.6472107,1.532289,10.840945
2014-03-09 15:34:22.649,0.842759,3.1794999,10.228029
2014-03-09 15:34:22.669,0.4213795,3.7924154,8.963891
2014-03-09 15:34:22.689,-0.19153613,5.3247046,7.967903
2014-03-09 15:34:22.709,0.4213795,5.5162406,8.00621
2014-03-09 15:34:22.729,3.1794999,2.719813,9.270349
2014-03-09 15:34:22.749,3.6008794,2.6431987,9.500193
2014-03-09 15:34:22.769,2.834735,3.6391866,9.615114
2014-03-09 15:34:22.792,1.1492168,4.4436383,8.580819
2014-03-09 15:34:22.809,1.0726024,3.6774938,8.159439
2014-03-09 15:34:22.830,1.3790601,3.3327289,8.121132
2014-03-09 15:34:22.849,1.5705963,3.1411927,7.967903
2014-03-09 15:34:22.869,1.2258313,3.1794999,7.201759
2014-03-09 15:34:22.889,-0.076614454,3.4476504,5.592855
2014-03-09 15:34:22.909,-0.2681506,3.1794999,5.707777
2014-03-09 15:34:22.919,0.038307227,2.3750482,5.7843914
2014-03-09 15:34:22.941,0.91937345,1.340753,5.899313
2014-03-09 15:34:22.949,2.834735,0.30645782,6.895301
2014-03-09 15:34:22.969,3.9839516,-0.8810662,7.967903
2014-03-09 15:34:22.989,4.673482,-3.371036,8.00621
2014-03-09 15:34:22.999,5.707777,-4.405331,7.0102224
2014-03-09 15:34:23.019,6.703765,-3.9073372,7.1251445
2014-03-09 15:34:23.029,6.9719152,-2.030283,8.159439
2014-03-09 15:34:23.048,6.4739213,0.38307226,10.228029
2014-03-09 15:34:23.069,6.6271505,2.9879637,10.6877165
2014-03-09 15:34:23.079,5.554548,3.9073372,9.959879
2014-03-09 15:34:23.099,6.3589997,4.175488,9.11712
2014-03-09 15:34:23.111,7.393295,5.746084,9.155427
2014-03-09 15:34:23.134,6.244078,7.8912888,10.113108
2014-03-09 15:34:23.149,4.9799395,14.135366,9.155427
2014-03-09 15:34:23.158,3.2944214,17.353174,6.435614
2014-03-09 15:34:23.179,4.060566,16.816874,4.903325
2014-03-09 15:34:23.189,3.6774938,12.909535,5.554548
2014-03-09 15:34:23.209,3.8307228,8.159439,4.175488
2014-03-09 15:34:23.224,1.1109096,6.7803793,0.80445176
2014-03-09 15:34:23.239,0.9959879,3.9456444,0.30645782
2014-03-09 15:34:23.258,3.4093432,1.2258313,1.6472107
2014-03-09 15:34:23.269,4.8267107,0.5746084,6.129156
2014-03-09 15:34:23.289,2.7581203,-1.9919758,-0.9576807
2014-03-09 15:34:23.299,5.363012,-1.8387469,2.566584
2014-03-09 15:34:23.319,6.0142345,-1.685518,3.8307228
2014-03-09 15:34:23.339,7.1251445,5.592855,1.1875241
2014-03-09 15:34:23.349,8.504205,13.369223,0.61291564
2014-03-09 15:34:23.369,13.330915,6.0142345,8.542512
2014-03-09 15:34:23.379,11.798626,19.88145,2.030283
2014-03-09 15:34:23.400,8.274361,19.728222,0.15322891
2014-03-09 15:34:23.409,5.8226986,13.139379,0.15322891
2014-03-09 15:34:23.429,2.9879637,9.155427,4.098873
2014-03-09 15:34:23.449,3.4476504,6.129156,5.0182467
2014-03-09 15:34:23.459,6.205771,6.0142345,6.397307
2014-03-09 15:34:23.479,8.121132,9.040505,3.3327289
2014-03-09 15:34:23.490,6.205771,8.542512,-3.2944214
2014-03-09 15:34:23.509,4.903325,10.0748005,-2.834735
2014-03-09 15:34:23.529,2.7964275,8.082825,-3.715801
2014-03-09 15:34:23.540,3.7541082,3.9839516,-4.3287168
2014-03-09 15:34:23.560,5.899313,0.6895301,-3.5242648
2014-03-09 15:34:23.569,-0.038307227,4.4819455,0.80445176
2014-03-09 15:34:23.589,1.7238252,9.691729,0.4213795
2014-03-09 15:34:23.609,6.397307,10.840945,-2.528277
2014-03-09 15:34:23.620,0.61291564,8.925584,-0.842759
2014-03-09 15:34:23.642,-0.6895301,2.0685902,8.236053
2014-03-09 15:34:23.649,7.73806,9.768343,0.4213795
2014-03-09 15:34:23.669,6.7803793,11.109096,0.9959879
2014-03-09 15:34:23.680,11.60709,8.0445175,5.056554
2014-03-09 15:34:23.700,10.534488,-1.0726024,0.8810662
2014-03-09 15:34:23.720,4.903325,-7.0485296,10.572795
2014-03-09 15:34:23.729,11.492168,3.2944214,-0.5746084
2014-03-09 15:34:23.749,9.844957,5.171476,-0.842759
2014-03-09 15:34:23.760,7.73806,3.7541082,2.873042
2014-03-09 15:34:23.780,6.8186865,2.030283,2.030283
2014-03-09 15:34:23.799,8.887277,1.7238252,-12.143391
2014-03-09 15:34:23.810,8.236053,0.22984336,-7.469909
2014-03-09 15:34:23.829,8.695741,3.1794999,1.8770541
2014-03-09 15:34:23.841,19.6133,13.637373,-2.183512
2014-03-09 15:34:23.860,18.732235,-4.2904096,-1.340753
2014-03-09 15:34:23.880,6.895301,4.367024,-3.4476504
2014-03-09 15:34:23.897,3.86903,3.715801,-2.7581203
2014-03-09 15:34:23.925,7.2783732,2.1068976,2.2984335
2014-03-09 15:34:23.927,12.143391,0.5746084,2.1068976
2014-03-09 15:34:23.942,11.9135475,-0.91937345,1.9919758
2014-03-09 15:34:23.952,8.350976,-1.7621324,2.0685902
2014-03-09 15:34:23.973,9.959879,-2.336741,1.3024458
2014-03-09 15:34:23.993,10.572795,-3.1411927,0.38307226
2014-03-09 15:34:24.001,9.5385,-3.217807,-0.15322891
2014-03-09 15:34:24.021,8.00621,-2.6431987,0.038307227
2014-03-09 15:34:24.031,7.0102224,-2.030283,0.7661445
2014-03-09 15:34:24.050,7.6231384,-1.6089035,1.4939818
2014-03-09 15:34:24.069,9.040505,-1.1109096,1.5705963
2014-03-09 15:34:24.082,9.691729,0.15322891,1.340753
2014-03-09 15:34:24.101,10.649409,1.0342951,0.91937345
2014-03-09 15:34:24.113,11.070788,1.685518,0.5363012
2014-03-09 15:34:24.131,10.113108,0.5363012,0.45968673
2014-03-09 15:34:24.141,9.844957,0.30645782,1.2258313
2014-03-09 15:34:24.161,8.00621,-0.80445176,0.61291564
2014-03-09 15:34:24.172,8.6574335,-0.9576807,1.3790601
2014-03-09 15:34:24.191,9.308656,-0.9959879,1.6089035
2014-03-09 15:34:24.209,9.730036,-0.34476504,1.3024458
2014-03-09 15:34:24.219,10.726024,-0.9576807,1.3024458
2014-03-09 15:34:24.239,11.415554,-0.61291564,0.7661445
2014-03-09 15:34:24.259,11.951855,-1.0342951,1.0342951
2014-03-09 15:34:24.269,10.266336,-1.532289,1.340753
2014-03-09 15:34:24.289,8.810662,-1.4173675,1.0726024
2014-03-09 15:34:24.299,8.6574335,-0.4213795,0.5746084
2014-03-09 15:34:24.320,8.42759,0.6895301,0.19153613
2014-03-09 15:34:24.340,10.304645,1.3024458,0.038307227
2014-03-09 15:34:24.349,12.756307,-0.22984336,0.7278373
2014-03-09 15:34:24.369,13.905523,-2.183512,1.685518
2014-03-09 15:34:24.380,11.951855,-1.7238252,0.9576807
2014-03-09 15:34:24.400,7.929596,0.2681506,0.5363012
2014-03-09 15:34:24.409,4.098873,1.3790601,0.7278373
2014-03-09 15:34:24.429,3.7924154,1.2641385,0.30645782
2014-03-09 15:34:24.449,7.699753,-0.19153613,0.45968673
2014-03-09 15:34:24.459,10.840945,-2.873042,0.61291564
2014-03-09 15:34:24.487,10.113108,-4.596867,-0.038307227
2014-03-09 15:34:24.493,8.236053,-4.711789,0.19153613
2014-03-09 15:34:24.509,7.5082164,-3.4859576,1.0726024
2014-03-09 15:34:24.532,8.504205,-2.719813,1.340753
2014-03-09 15:34:24.541,9.461885,-1.9919758,1.4173675
2014-03-09 15:34:24.560,10.113108,-2.0685902,1.1875241
2014-03-09 15:34:24.571,9.385271,-2.719813,0.49799395
2014-03-09 15:34:24.591,10.266336,-3.5242648,0.2681506
2014-03-09 15:34:24.609,11.415554,-3.4859576,0.5363012
2014-03-09 15:34:24.620,10.611102,-2.719813,0.4213795
2014-03-09 15:34:24.641,8.197746,-2.183512,0.4213795
2014-03-09 15:34:24.651,7.8912888,-2.183512,1.2258313
2014-03-09 15:34:24.670,7.8529816,-2.336741,0.7278373
2014-03-09 15:34:24.680,8.274361,-0.91937345,-0.49799395
2014-03-09 15:34:24.700,8.274361,-0.5363012,-1.2641385
2014-03-09 15:34:24.720,8.542512,-1.4939818,-0.9959879
2014-03-09 15:34:24.732,9.002198,-1.7238252,-0.5746084
2014-03-09 15:34:24.750,9.385271,-1.3024458,-0.4213795
2014-03-09 15:34:24.760,9.423578,-1.1109096,-0.4213795
2014-03-09 15:34:24.779,9.461885,-1.1109096,-0.5363012
2014-03-09 15:34:24.799,9.232041,-1.4173675,-0.4213795
2014-03-09 15:34:24.808,9.193734,-1.685518,-0.4213795
2014-03-09 15:34:24.828,9.653421,-1.6089035,-0.49799395
2014-03-09 15:34:24.839,10.381259,-1.9536686,-0.49799395
2014-03-09 15:34:24.859,9.844957,-1.5705963,-0.6512229
2014-03-09 15:34:24.869,8.580819,-1.3024458,-0.80445176
2014-03-09 15:34:24.889,8.695741,-1.340753,-0.5363012
2014-03-09 15:34:24.909,9.691729,-1.340753,-0.61291564
2014-03-09 15:34:24.922,9.691729,-1.1875241,-0.45968673
2014-03-09 15:34:24.943,9.576807,-1.4939818,-0.6512229
2014-03-09 15:34:24.954,9.385271,-1.7621324,-0.5746084
2014-03-09 15:34:24.969,9.11712,-1.7621324,-0.45968673
2014-03-09 15:34:24.990,9.002198,-1.7238252,-0.5363012
2014-03-09 15:34:25.000,9.270349,-1.8387469,-0.49799395
2014-03-09 15:34:25.020,9.691729,-2.030283,-0.45968673
2014-03-09 15:34:25.030,9.653421,-1.9919758,-0.45968673
2014-03-09 15:34:25.049,9.883265,-1.9153614,-0.11492168
2014-03-09 15:34:25.069,9.040505,-1.9153614,-0.076614454
2014-03-09 15:34:25.081,9.308656,-2.030283,-0.038307227
2014-03-09 15:34:25.100,9.078813,-2.1068976,-0.22984336
2014-03-09 15:34:25.112,9.308656,-1.8387469,-0.6895301
2014-03-09 15:34:25.131,9.5385,-1.7621324,-0.6512229
2014-03-09 15:34:25.141,9.11712,-1.4939818,-0.34476504
2014-03-09 15:34:25.172,9.040505,-1.3790601,-0.11492168
2014-03-09 15:34:25.176,8.963891,-1.4939818,-0.11492168
2014-03-09 15:34:25.190,9.040505,-1.7621324,-0.11492168
2014-03-09 15:34:25.209,9.80665,-2.030283,-0.38307226
2014-03-09 15:34:25.219,10.189722,-2.0685902,-0.5363012
2014-03-09 15:34:25.239,9.80665,-1.9536686,-0.15322891
2014-03-09 15:34:25.258,9.11712,-1.685518,0.15322891
2014-03-09 15:34:25.270,8.734048,-1.7621324,0.11492168
2014-03-09 15:34:25.291,9.078813,-1.8387469,-0.19153613
2014-03-09 15:34:25.299,9.576807,-1.8004397,-0.2681506
2014-03-09 15:34:25.319,9.615114,-1.7621324,-0.30645782
2014-03-09 15:34:25.339,9.615114,-1.5705963,-0.30645782
2014-03-09 15:34:25.356,9.232041,-1.3024458,-0.30645782
2014-03-09 15:34:25.371,9.040505,-1.1875241,-0.22984336
2014-03-09 15:34:25.379,8.963891,-1.4556746,-0.2681506
2014-03-09 15:34:25.399,8.810662,-1.3790601,-0.22984336
2014-03-09 15:34:25.411,9.155427,-1.6472107,-0.30645782
2014-03-09 15:34:25.429,9.576807,-1.9536686,-0.30645782
2014-03-09 15:34:25.450,9.768343,-1.9919758,-0.34476504
2014-03-09 15:34:25.459,9.5385,-1.8004397,-0.30645782
2014-03-09 15:34:25.479,9.500193,-1.8770541,-0.19153613
2014-03-09 15:34:25.492,9.193734,-1.9153614,-0.11492168
2014-03-09 15:34:25.511,9.232041,-1.9919758,-0.076614454
2014-03-09 15:34:25.521,9.423578,-2.030283,-0.2681506
2014-03-09 15:34:25.562,9.500193,-2.0685902,-0.2681506
2014-03-09 15:34:25.596,9.5385,-1.9919758,-0.15322891
2014-03-09 15:34:25.598,9.346964,-1.9919758,-0.076614454
2014-03-09 15:34:25.621,9.11712,-2.0685902,0.038307227
2014-03-09 15:34:25.624,8.887277,-1.9153614,-0.038307227
2014-03-09 15:34:25.635,9.040505,-1.7238252,-0.076614454
2014-03-09 15:34:25.641,8.963891,-1.6472107,-0.11492168
2014-03-09 15:34:25.649,8.465898,-1.3790601,-0.30645782
2014-03-09 15:34:25.670,9.11712,-1.6089035,-0.19153613
2014-03-09 15:34:25.678,9.80665,-1.9153614,-0.19153613
2014-03-09 15:34:25.698,9.883265,-2.2984335,-0.11492168
2014-03-09 15:34:25.719,9.844957,-2.2984335,0.076614454
2014-03-09 15:34:25.730,9.385271,-2.030283,-0.15322891
2014-03-09 15:34:25.751,9.423578,-1.8770541,-0.076614454
2014-03-09 15:34:25.759,9.155427,-1.9919758,0.076614454
2014-03-09 15:34:25.781,9.5385,-2.030283,0.038307227
2014-03-09 15:34:25.792,9.461885,-1.8387469,-0.15322891
2014-03-09 15:34:25.811,9.308656,-1.6089035,-0.038307227
2014-03-09 15:34:25.831,8.772355,-1.3790601,0.11492168
2014-03-09 15:34:25.842,8.42759,-1.532289,0.038307227
2014-03-09 15:34:25.860,9.461885,-2.183512,0.34476504
2014-03-09 15:34:25.871,9.768343,-2.3750482,0.45968673
2014-03-09 15:34:25.890,9.921572,-1.6472107,-0.038307227
2014-03-09 15:34:25.909,9.998186,-1.3024458,-0.15322891
2014-03-09 15:34:25.919,9.844957,-1.4939818,0.0
2014-03-09 15:34:25.939,8.887277,-1.685518,0.19153613
2014-03-09 15:34:25.949,9.155427,-1.9536686,0.2681506
2014-03-09 15:34:25.970,8.887277,-1.7238252,-0.19153613
2014-03-09 15:34:25.995,9.5385,-2.2601264,0.4213795
2014-03-09 15:34:25.999,9.844957,-2.3750482,-0.22984336
2014-03-09 15:34:26.022,9.385271,-2.4516625,0.076614454
2014-03-09 15:34:26.030,8.695741,-1.6472107,0.22984336
2014-03-09 15:34:26.050,8.887277,-1.2641385,-0.038307227
2014-03-09 15:34:26.070,9.193734,-1.4939818,-0.15322891
2014-03-09 15:34:26.081,9.193734,-1.8004397,-0.076614454
2014-03-09 15:34:26.101,9.423578,-2.183512,0.15322891
2014-03-09 15:34:26.110,9.615114,-2.4516625,0.22984336
2014-03-09 15:34:26.130,9.423578,-2.2984335,0.11492168
2014-03-09 15:34:26.144,9.193734,-2.1068976,0.038307227
2014-03-09 15:34:26.160,9.11712,-1.9536686,-0.076614454
2014-03-09 15:34:26.180,9.270349,-2.0685902,0.076614454
2014-03-09 15:34:26.191,9.5385,-2.336741,0.15322891
2014-03-09 15:34:26.210,9.308656,-2.3750482,0.076614454
2014-03-09 15:34:26.222,9.308656,-2.2601264,0.076614454
2014-03-09 15:34:26.239,9.500193,-2.2218192,0.076614454
2014-03-09 15:34:26.258,9.308656,-1.7621324,-0.076614454
2014-03-09 15:34:26.269,9.461885,-1.6089035,0.076614454
2014-03-09 15:34:26.290,9.615114,-1.685518,-0.15322891
2014-03-09 15:34:26.299,9.615114,-1.6472107,-0.45968673
2014-03-09 15:34:26.319,9.461885,-1.6089035,-0.34476504
2014-03-09 15:34:26.339,9.308656,-1.8387469,-0.19153613
2014-03-09 15:34:26.356,9.270349,-2.1068976,-0.11492168
2014-03-09 15:34:26.370,9.270349,-2.2601264,-0.19153613
2014-03-09 15:34:26.379,9.040505,-2.2218192,-0.45968673
2014-03-09 15:34:26.399,8.542512,-1.9919758,-0.5363012
2014-03-09 15:34:26.410,8.6574335,-1.8004397,-0.4213795
2014-03-09 15:34:26.429,9.11712,-1.7238252,-0.38307226
2014-03-09 15:34:26.449,9.346964,-1.8387469,-0.5746084
2014-03-09 15:34:26.459,9.308656,-1.9536686,-0.49799395
2014-03-09 15:34:26.482,9.423578,-1.9919758,-0.4213795
2014-03-09 15:34:26.492,9.308656,-1.9536686,-0.5363012
2014-03-09 15:34:26.511,9.653421,-2.030283,-0.6512229
2014-03-09 15:34:26.522,9.844957,-1.9919758,-0.80445176
2014-03-09 15:34:26.539,9.308656,-1.685518,-0.91937345
2014-03-09 15:34:26.558,9.193734,-1.8387469,-0.5746084
2014-03-09 15:34:26.569,9.385271,-2.0685902,-0.5746084
2014-03-09 15:34:26.590,8.963891,-2.2218192,-0.61291564
2014-03-09 15:34:26.609,8.389283,-2.336741,-0.61291564
2014-03-09 15:34:26.619,8.542512,-2.1452048,-0.61291564
2014-03-09 15:34:26.640,9.193734,-2.0685902,-0.7278373
2014-03-09 15:34:26.649,9.385271,-2.0685902,-0.8810662
2014-03-09 15:34:26.669,9.193734,-2.183512,-0.80445176
2014-03-09 15:34:26.679,9.232041,-2.336741,-0.38307226
2014-03-09 15:34:26.698,9.193734,-2.336741,-0.45968673
2014-03-09 15:34:26.719,9.385271,-2.4899697,-0.5363012
2014-03-09 15:34:26.729,9.270349,-2.4133554,-0.45968673
2014-03-09 15:34:26.749,9.193734,-2.3750482,-0.34476504
2014-03-09 15:34:26.758,9.193734,-2.4516625,-0.38307226
2014-03-09 15:34:26.781,9.5385,-2.834735,-0.2681506
2014-03-09 15:34:26.792,9.844957,-3.217807,-0.11492168
2014-03-09 15:34:26.810,9.653421,-3.2561142,-0.34476504
2014-03-09 15:34:26.830,9.078813,-2.681506,-0.45968673
2014-03-09 15:34:26.841,9.078813,-2.3750482,-0.38307226
2014-03-09 15:34:26.859,7.201759,-1.340753,-0.842759
2014-03-09 15:34:26.870,8.159439,-0.9959879,-0.22984336
2014-03-09 15:34:26.891,9.653421,-2.2601264,-0.38307226
2014-03-09 15:34:26.910,9.768343,-2.2601264,-0.6895301
2014-03-09 15:34:26.921,9.576807,-1.9919758,-0.80445176
2014-03-09 15:34:26.942,9.308656,-2.030283,-0.6895301
2014-03-09 15:34:26.950,9.040505,-2.1452048,-0.34476504
2014-03-09 15:34:26.971,10.381259,-2.3750482,0.038307227
2014-03-09 15:34:26.990,10.151415,-3.217807,-0.49799395
2014-03-09 15:34:26.998,9.078813,-2.528277,-0.5363012
2014-03-09 15:34:27.019,8.389283,-1.8770541,-0.30645782
2014-03-09 15:34:27.029,8.504205,-2.1452048,-0.076614454
2014-03-09 15:34:27.049,8.312668,-1.532289,-0.45968673
2014-03-09 15:34:27.070,9.078813,-1.9153614,-0.34476504
2014-03-09 15:34:27.079,9.270349,-2.4899697,-0.38307226
2014-03-09 15:34:27.099,9.193734,-2.719813,-0.45968673
2014-03-09 15:34:27.112,9.078813,-2.566584,-0.38307226
2014-03-09 15:34:27.130,9.308656,-2.2601264,-0.38307226
2014-03-09 15:34:27.143,9.500193,-2.183512,-0.45968673
2014-03-09 15:34:27.160,9.615114,-2.3750482,-0.30645782
2014-03-09 15:34:27.184,9.461885,-2.4899697,-0.15322891
2014-03-09 15:34:27.192,8.848969,-2.4133554,-0.34476504
2014-03-09 15:34:27.210,8.925584,-2.566584,-0.2681506
2014-03-09 15:34:27.221,8.772355,-2.4516625,-0.22984336
2014-03-09 15:34:27.239,9.040505,-2.336741,-0.22984336
2014-03-09 15:34:27.259,9.308656,-2.2601264,-0.2681506
2014-03-09 15:34:27.270,9.002198,-2.2218192,-0.45968673
2014-03-09 15:34:27.295,8.887277,-2.0685902,-0.5746084
2014-03-09 15:34:27.299,9.040505,-2.1452048,-0.30645782
2014-03-09 15:34:27.322,9.346964,-2.2984335,-0.22984336
2014-03-09 15:34:27.330,9.883265,-2.4899697,-0.38307226
2014-03-09 15:34:27.350,9.615114,-2.4516625,-0.4213795
2014-03-09 15:34:27.370,8.963891,-2.3750482,-0.4213795
2014-03-09 15:34:27.382,8.772355,-2.3750482,-0.6512229
2014-03-09 15:34:27.401,8.810662,-2.3750482,-0.49799395
2014-03-09 15:34:27.410,8.772355,-2.4899697,-0.30645782
2014-03-09 15:34:27.430,8.810662,-2.566584,-0.38307226
2014-03-09 15:34:27.450,9.500193,-2.9113493,-0.30645782
2014-03-09 15:34:27.462,10.0748005,-2.9496565,-0.61291564
2014-03-09 15:34:27.480,9.80665,-2.6048915,-0.7278373
2014-03-09 15:34:27.491,9.615114,-2.336741,-1.0726024
2014-03-09 15:34:27.510,9.691729,-2.3750482,-0.9959879
2014-03-09 15:34:27.522,9.730036,-2.719813,-0.7661445
2014-03-09 15:34:27.539,9.270349,-2.7964275,-0.61291564
2014-03-09 15:34:27.559,8.6574335,-2.873042,-0.6512229
2014-03-09 15:34:27.570,8.350976,-2.873042,-0.7278373
2014-03-09 15:34:27.590,8.00621,-2.528277,-0.7278373
2014-03-09 15:34:27.599,8.0445175,-2.9113493,-0.9576807
2014-03-09 15:34:27.619,8.6574335,-3.064578,-0.842759
2014-03-09 15:34:27.641,9.385271,-2.9879637,-0.61291564
2014-03-09 15:34:27.650,8.619126,-2.9879637,-0.11492168
2014-03-09 15:34:27.671,8.810662,-3.1028855,-0.15322891
2014-03-09 15:34:27.678,8.925584,-2.7964275,-0.7278373
2014-03-09 15:34:27.698,9.193734,-2.6431987,-1.0342951
2014-03-09 15:34:27.719,9.615114,-2.2984335,-0.9959879
2014-03-09 15:34:27.729,9.959879,-2.2601264,-0.45968673
2014-03-09 15:34:27.749,9.691729,-2.6431987,-0.15322891
2014-03-09 15:34:27.759,9.11712,-2.4516625,-0.22984336
2014-03-09 15:34:27.806,8.274361,-2.2218192,-0.34476504
2014-03-09 15:34:27.826,8.274361,-2.2984335,-0.22984336
2014-03-09 15:34:27.827,8.580819,-2.4516625,-0.076614454
2014-03-09 15:34:27.841,9.385271,-2.6048915,-0.15322891
2014-03-09 15:34:27.857,9.5385,-2.719813,-0.5363012
2014-03-09 15:34:27.862,9.232041,-2.4516625,-0.38307226
2014-03-09 15:34:27.869,10.113108,-3.217807,0.11492168
2014-03-09 15:34:27.892,10.726024,-2.7964275,0.038307227
2014-03-09 15:34:27.909,10.649409,-2.7964275,-0.61291564
2014-03-09 15:34:27.919,8.542512,-1.6089035,-0.38307226
2014-03-09 15:34:27.939,7.1634517,-0.38307226,-0.5363012
2014-03-09 15:34:27.949,7.73806,-0.91937345,0.19153613
2014-03-09 15:34:27.977,9.423578,-2.183512,0.22984336
2014-03-09 15:34:27.991,9.80665,-2.0685902,-0.2681506
2014-03-09 15:34:28.001,9.615114,-2.183512,-0.4213795
2014-03-09 15:34:28.019,9.998186,-2.2984335,-0.2681506
2014-03-09 15:34:28.030,9.270349,-2.183512,-0.22984336
2014-03-09 15:34:28.050,9.308656,-2.183512,-0.19153613
2014-03-09 15:34:28.061,9.346964,-2.1452048,-0.15322891
2014-03-09 15:34:28.078,9.270349,-2.566584,-0.076614454
2014-03-09 15:34:28.098,8.772355,-1.9153614,-0.45968673
2014-03-09 15:34:28.109,9.078813,-1.7621324,-0.61291564
2014-03-09 15:34:28.131,9.193734,-1.8770541,-0.49799395
2014-03-09 15:34:28.139,9.11712,-1.8004397,-0.6895301
2014-03-09 15:34:28.159,9.5385,-2.1068976,-0.5363012
2014-03-09 15:34:28.178,9.691729,-2.1068976,-0.19153613
2014-03-09 15:34:28.189,9.270349,-1.9536686,-0.49799395
2014-03-09 15:34:28.209,9.11712,-2.1068976,-0.6512229
2014-03-09 15:34:28.219,9.385271,-1.9536686,-0.6512229
2014-03-09 15:34:28.239,9.423578,-1.8004397,-0.7661445
2014-03-09 15:34:28.261,9.078813,-1.8387469,-0.6895301
2014-03-09 15:34:28.270,8.695741,-1.9536686,-0.5746084
2014-03-09 15:34:28.291,9.155427,-2.4899697,-0.49799395
2014-03-09 15:34:28.301,9.461885,-2.183512,-0.7661445
2014-03-09 15:34:28.320,9.691729,-2.030283,-1.1492168
2014-03-09 15:34:28.330,9.461885,-1.7621324,-1.1875241
2014-03-09 15:34:28.350,8.848969,-1.6472107,-0.80445176
2014-03-09 15:34:28.372,8.772355,-1.9153614,-0.7278373
2014-03-09 15:34:28.382,8.887277,-2.1452048,-0.80445176
2014-03-09 15:34:28.401,8.887277,-2.2984335,-0.842759
2014-03-09 15:34:28.410,8.925584,-2.183512,-0.7278373
2014-03-09 15:34:28.429,8.734048,-2.0685902,-0.5746084
2014-03-09 15:34:28.449,9.193734,-2.4516625,-0.5746084
2014-03-09 15:34:28.459,9.691729,-2.7964275,-0.9959879
2014-03-09 15:34:28.479,9.576807,-2.528277,-1.1492168
2014-03-09 15:34:28.496,9.576807,-2.528277,-0.61291564
2014-03-09 15:34:28.510,9.232041,-2.6048915,-0.19153613
2014-03-09 15:34:28.530,8.772355,-2.6431987,-0.15322891
2014-03-09 15:34:28.546,9.270349,-2.7964275,-0.49799395
2014-03-09 15:34:28.560,9.844957,-2.9879637,-0.7278373
2014-03-09 15:34:28.569,10.649409,-3.715801,-0.5363012
2014-03-09 15:34:28.589,10.802638,-4.060566,-0.5363012
2014-03-09 15:34:28.598,9.576807,-3.4476504,-0.7278373
2014-03-09 15:34:28.618,8.197746,-2.7581203,-0.45968673
2014-03-09 15:34:28.639,8.0445175,-1.532289,-0.5746084
2014-03-09 15:34:28.649,7.967903,-1.4939818,-0.30645782
2014-03-09 15:34:28.670,9.691729,-4.2521024,1.1109096
2014-03-09 15:34:28.679,8.772355,-5.861006,0.8810662
2014-03-09 15:34:28.699,8.082825,-6.3206925,-1.340753
2014-03-09 15:34:28.712,7.201759,-6.129156,0.038307227
2014-03-09 15:34:28.731,7.393295,-4.060566,1.9536686
2014-03-09 15:34:28.751,8.274361,1.9919758,2.719813
2014-03-09 15:34:28.761,9.576807,7.6614456,1.3790601
2014-03-09 15:34:28.780,11.836933,8.695741,0.8810662
2014-03-09 15:34:28.791,13.522451,4.213795,-1.8004397
2014-03-09 15:34:28.810,11.990162,1.6472107,-3.7541082
2014-03-09 15:34:28.830,10.0748005,0.4213795,-3.4093432
2014-03-09 15:34:28.842,8.504205,-0.45968673,-1.7621324
2014-03-09 15:34:28.862,8.542512,-1.9153614,0.076614454
2014-03-09 15:34:28.870,8.236053,-2.6048915,1.4939818
2014-03-09 15:34:28.891,7.8912888,-3.064578,2.6431987
2014-03-09 15:34:28.910,7.699753,-3.6391866,4.9799395
2014-03-09 15:34:28.920,7.73806,-4.175488,4.0222588
2014-03-09 15:34:28.940,8.504205,-3.4093432,0.9576807
2014-03-09 15:34:28.951,9.921572,-2.528277,-2.1452048
2014-03-09 15:34:28.970,10.802638,-2.336741,-1.9153614
2014-03-09 15:34:28.991,10.649409,-2.2984335,-0.61291564
2014-03-09 15:34:29.001,9.883265,-1.9153614,0.19153613
2014-03-09 15:34:29.019,9.998186,-2.030283,0.9576807
2014-03-09 15:34:29.030,9.80665,-2.9879637,1.340753
2014-03-09 15:34:29.051,8.236053,-2.9496565,0.91937345
2014-03-09 15:34:29.062,8.082825,-2.834735,0.2681506
2014-03-09 15:34:29.079,8.465898,-2.7581203,0.38307226
2014-03-09 15:34:29.113,8.810662,-2.719813,0.4213795
2014-03-09 15:34:29.115,8.925584,-2.7964275,0.5746084
2014-03-09 15:34:29.139,8.887277,-2.873042,0.5746084
2014-03-09 15:34:29.143,8.848969,-2.834735,0.45968673
2014-03-09 15:34:29.159,9.270349,-2.9496565,0.6895301
2014-03-09 15:34:29.178,8.887277,-2.873042,0.49799395
2014-03-09 15:34:29.189,9.500193,-3.064578,0.22984336
2014-03-09 15:34:29.209,10.6877165,-3.4859576,0.15322891
2014-03-09 15:34:29.219,10.611102,-3.2561142,-0.22984336
2014-03-09 15:34:29.244,9.80665,-2.566584,-0.30645782
2014-03-09 15:34:29.258,8.6574335,-2.4516625,-0.22984336
2014-03-09 15:34:29.269,8.312668,-2.4899697,0.11492168
2014-03-09 15:34:29.289,8.542512,-2.873042,0.5746084
2014-03-09 15:34:29.299,8.925584,-3.1794999,1.0726024
2014-03-09 15:34:29.319,8.695741,-3.1794999,0.38307226
2014-03-09 15:34:29.329,8.810662,-3.064578,-0.2681506
2014-03-09 15:34:29.349,9.002198,-2.9113493,-0.22984336
2014-03-09 15:34:29.374,8.963891,-2.9113493,-0.15322891
2014-03-09 15:34:29.380,9.078813,-2.873042,-0.038307227
2014-03-09 15:34:29.400,9.193734,-2.873042,0.19153613
2014-03-09 15:34:29.410,9.078813,-2.834735,0.2681506
2014-03-09 15:34:29.430,8.887277,-3.0262709,0.34476504
2014-03-09 15:34:29.450,8.6574335,-3.1028855,0.15322891
2014-03-09 15:34:29.459,8.619126,-3.064578,0.15322891
2014-03-09 15:34:29.481,8.810662,-3.0262709,0.22984336
2014-03-09 15:34:29.491,9.078813,-2.9496565,0.22984336
2014-03-09 15:34:29.510,9.270349,-2.9113493,0.076614454
2014-03-09 15:34:29.521,9.308656,-2.9879637,0.11492168
2014-03-09 15:34:29.553,8.925584,-3.1028855,0.34476504
2014-03-09 15:34:29.555,8.772355,-3.371036,0.38307226
2014-03-09 15:34:29.571,8.772355,-3.1028855,0.2681506
2014-03-09 15:34:29.592,8.925584,-3.1028855,0.2681506
2014-03-09 15:34:29.598,9.040505,-3.3327289,0.30645782
2014-03-09 15:34:29.619,8.925584,-3.217807,0.15322891
2014-03-09 15:34:29.639,8.810662,-2.9879637,0.11492168
2014-03-09 15:34:29.649,8.580819,-2.6431987,0.15322891
2014-03-09 15:34:29.672,8.848969,-2.7964275,0.22984336
2014-03-09 15:34:29.682,9.193734,-3.0262709,0.38307226
2014-03-09 15:34:29.699,9.461885,-3.2561142,0.34476504
2014-03-09 15:34:29.720,9.653421,-3.371036,0.30645782
2014-03-09 15:34:29.731,9.232041,-3.1411927,0.38307226
2014-03-09 15:34:29.750,8.887277,-3.064578,0.38307226
2014-03-09 15:34:29.759,8.810662,-3.1411927,0.4213795
2014-03-09 15:34:29.780,8.6574335,-3.1411927,0.5363012
2014-03-09 15:34:29.791,8.504205,-2.9496565,0.34476504
2014-03-09 15:34:29.810,9.078813,-2.9113493,0.11492168
2014-03-09 15:34:29.830,9.346964,-2.9496565,0.2681506
2014-03-09 15:34:29.842,9.232041,-2.9496565,0.15322891
2014-03-09 15:34:29.862,9.040505,-2.9496565,0.19153613
2014-03-09 15:34:29.870,8.848969,-2.873042,0.19153613
2014-03-09 15:34:29.891,8.772355,-2.6048915,0.0
2014-03-09 15:34:29.910,8.542512,-2.4133554,0.038307227
2014-03-09 15:34:29.921,9.11712,-2.6431987,0.4213795
2014-03-09 15:34:29.940,9.423578,-2.9496565,0.5746084
2014-03-09 15:34:29.950,9.193734,-3.1028855,0.2681506
2014-03-09 15:34:29.970,9.232041,-3.1794999,0.0
2014-03-09 15:34:29.991,9.040505,-2.9113493,-0.038307227
2014-03-09 15:34:30.001,9.040505,-2.9113493,0.0
2014-03-09 15:34:30.020,9.423578,-3.0262709,0.22984336
2014-03-09 15:34:30.030,9.461885,-3.4093432,0.19153613
2014-03-09 15:34:30.050,8.963891,-3.9073372,-0.038307227
2014-03-09 15:34:30.061,8.465898,-3.6391866,0.30645782
2014-03-09 15:34:30.080,8.504205,-3.4093432,-0.076614454
2014-03-09 15:34:30.101,8.734048,-3.0262709,-0.34476504
2014-03-09 15:34:30.110,8.848969,-3.217807,-0.61291564
2014-03-09 15:34:30.130,9.002198,-2.9496565,-0.22984336
2014-03-09 15:34:30.142,9.270349,-3.0262709,-0.15322891
2014-03-09 15:34:30.159,9.346964,-3.1794999,-0.4213795
2014-03-09 15:34:30.179,9.232041,-3.2561142,-0.4213795
2014-03-09 15:34:30.191,9.155427,-3.2561142,-0.5746084
2014-03-09 15:34:30.210,8.887277,-3.371036,-0.34476504
2014-03-09 15:34:30.221,8.465898,-3.4093432,-0.38307226
2014-03-09 15:34:30.241,8.580819,-3.371036,-0.30645782
2014-03-09 15:34:30.262,8.389283,-3.5242648,-0.11492168
2014-03-09 15:34:30.270,8.197746,-3.6774938,-0.11492168
2014-03-09 15:34:30.291,8.6574335,-3.7924154,-0.30645782
2014-03-09 15:34:30.301,9.078813,-3.7924154,-0.61291564
2014-03-09 15:34:30.322,9.040505,-3.6008794,-0.7278373
2014-03-09 15:34:30.329,8.848969,-3.371036,-0.45968673
2014-03-09 15:34:30.349,8.580819,-3.3327289,-0.19153613
2014-03-09 15:34:30.369,7.8529816,-3.064578,-0.19153613
2014-03-09 15:34:30.379,7.240066,-2.873042,-0.4213795
2014-03-09 15:34:30.399,8.00621,-3.3327289,-0.30645782
2014-03-09 15:34:30.409,10.649409,-4.3287168,0.38307226
2014-03-09 15:34:30.429,12.603078,-3.7924154,0.15322891
2014-03-09 15:34:30.449,10.840945,-3.5625722,-1.1109096
2014-03-09 15:34:30.459,9.040505,-2.7581203,-1.1109096
2014-03-09 15:34:30.482,8.389283,-2.2218192,-0.61291564
2014-03-09 15:34:30.491,7.469909,-1.6089035,-0.4213795
2014-03-09 15:34:30.510,7.393295,-1.6472107,-0.11492168
2014-03-09 15:34:30.522,8.389283,-2.4516625,0.34476504
2014-03-09 15:34:30.539,9.730036,-2.9113493,0.076614454
2014-03-09 15:34:30.559,11.18571,-3.5242648,-0.11492168
2014-03-09 15:34:30.570,10.266336,-3.9456444,-0.6895301
2014-03-09 15:34:30.590,9.193734,-4.213795,-0.91937345
2014-03-09 15:34:30.599,8.772355,-4.175488,-0.30645782
2014-03-09 15:34:30.619,9.040505,-4.0222588,0.4213795
2014-03-09 15:34:30.640,9.959879,-4.8267107,0.45968673
2014-03-09 15:34:30.650,9.270349,-4.596867,0.61291564
2014-03-09 15:34:30.671,7.240066,-3.0262709,0.6895301
2014-03-09 15:34:30.679,6.6654577,-1.7621324,0.6512229
2014-03-09 15:34:30.698,7.469909,-0.9959879,1.2258313
2014-03-09 15:34:30.719,7.5082164,0.5363012,0.7278373
2014-03-09 15:34:30.729,8.197746,1.7621324,0.49799395
2014-03-09 15:34:30.749,9.500193,2.1068976,-0.038307227
2014-03-09 15:34:30.759,10.266336,1.7621324,-0.842759
2014-03-09 15:34:30.781,9.423578,1.6089035,-1.0726024
2014-03-09 15:34:30.792,9.308656,1.5705963,-0.45968673
2014-03-09 15:34:30.810,9.691729,0.9959879,-0.076614454
2014-03-09 15:34:30.830,9.346964,0.45968673,0.19153613
2014-03-09 15:34:30.841,9.730036,-0.19153613,0.38307226
2014-03-09 15:34:30.862,9.653421,-0.45968673,0.7278373
2014-03-09 15:34:30.870,8.389283,-0.49799395,0.34476504
2014-03-09 15:34:30.891,7.6614456,-0.5363012,0.5746084
2014-03-09 15:34:30.911,7.699753,-0.80445176,0.9959879
2014-03-09 15:34:30.921,7.0102224,-0.45968673,0.80445176
2014-03-09 15:34:30.940,6.2823853,-0.11492168,0.34476504
2014-03-09 15:34:30.950,6.6271505,-0.30645782,0.4213795
2014-03-09 15:34:30.970,7.929596,-0.45968673,0.9576807
2014-03-09 15:34:30.991,10.994174,-0.91937345,1.5705963
2014-03-09 15:34:31.001,11.60709,-2.7581203,1.6089035
2014-03-09 15:34:31.019,13.139379,-4.7884035,4.175488
2014-03-09 15:34:31.030,14.671668,-3.86903,3.064578
2014-03-09 15:34:31.050,11.990162,-2.834735,3.6774938
2014-03-09 15:34:31.061,11.109096,-1.9536686,4.1371803
2014-03-09 15:34:31.080,10.802638,-0.91937345,2.030283
2014-03-09 15:34:31.100,9.921572,-0.15322891,0.7661445
2014-03-09 15:34:31.110,9.232041,-0.076614454,0.38307226
2014-03-09 15:34:31.131,9.002198,-0.19153613,0.9959879
2014-03-09 15:34:31.149,9.423578,-0.45968673,1.9536686
2014-03-09 15:34:31.163,9.576807,-0.5746084,2.4899697
2014-03-09 15:34:31.180,9.883265,-0.34476504,2.6431987
2014-03-09 15:34:31.191,9.768343,0.15322891,2.030283
2014-03-09 15:34:31.214,9.385271,0.34476504,1.9919758
2014-03-09 15:34:31.224,9.040505,0.34476504,2.336741
2014-03-09 15:34:31.239,9.385271,0.22984336,2.6431987
2014-03-09 15:34:31.259,9.80665,0.61291564,2.528277
2014-03-09 15:34:31.269,9.461885,0.91937345,2.1068976
2014-03-09 15:34:31.290,9.423578,0.9576807,2.6048915
2014-03-09 15:34:31.299,9.193734,1.0342951,2.566584
2014-03-09 15:34:31.320,8.848969,0.5363012,2.873042
2014-03-09 15:34:31.330,8.925584,-0.11492168,2.7581203
2014-03-09 15:34:31.350,9.615114,-0.6512229,2.566584
2014-03-09 15:34:31.363,9.883265,-1.1492168,2.4899697
2014-03-09 15:34:31.381,9.883265,-0.9959879,2.336741
2014-03-09 15:34:31.401,9.768343,-0.80445176,2.336741
2014-03-09 15:34:31.410,9.576807,-0.7661445,2.4899697
2014-03-09 15:34:31.429,8.734048,-1.2641385,2.6431987
2014-03-09 15:34:31.449,10.534488,-1.4173675,2.4133554
2014-03-09 15:34:31.459,8.887277,-1.5705963,2.3750482
2014-03-09 15:34:31.478,8.465898,-1.2641385,2.183512
2014-03-09 15:34:31.489,8.00621,-1.2641385,2.336741
2014-03-09 15:34:31.509,8.42759,-1.3024458,2.566584
2014-03-09 15:34:31.519,9.078813,-1.0726024,2.4899697
2014-03-09 15:34:31.539,9.423578,-0.7661445,2.528277
2014-03-09 15:34:31.560,9.308656,-0.49799395,2.566584
2014-03-09 15:34:31.570,9.385271,-0.11492168,2.6048915
2014-03-09 15:34:31.590,10.0748005,0.11492168,2.566584
2014-03-09 15:34:31.601,10.189722,0.19153613,2.4516625
2014-03-09 15:34:31.619,10.036493,0.076614454,2.6048915
2014-03-09 15:34:31.639,9.653421,0.2681506,2.681506
2014-03-09 15:34:31.649,8.619126,0.34476504,2.4899697
2014-03-09 15:34:31.670,8.389283,0.4213795,2.681506
2014-03-09 15:34:31.679,8.925584,0.6895301,2.7581203
2014-03-09 15:34:31.699,9.11712,0.9576807,2.2601264
2014-03-09 15:34:31.712,9.11712,1.0342951,2.1068976
2014-03-09 15:34:31.730,9.155427,0.7661445,2.183512
2014-03-09 15:34:31.750,9.615114,0.34476504,2.4516625
2014-03-09 15:34:31.761,9.615114,-0.076614454,2.2984335
2014-03-09 15:34:31.780,9.346964,-0.49799395,1.9919758
2014-03-09 15:34:31.791,9.385271,-0.80445176,1.8387469
2014-03-09 15:34:31.810,9.5385,-0.91937345,1.7238252
2014-03-09 15:34:31.830,9.576807,-0.9576807,1.685518
2014-03-09 15:34:31.842,9.730036,-0.91937345,1.6089035
2014-03-09 15:34:31.861,10.113108,-0.45968673,1.0342951
2014-03-09 15:34:31.870,10.611102,-1.2258313,2.528277
2014-03-09 15:34:31.891,10.0748005,-0.8810662,1.5705963
2014-03-09 15:34:31.910,9.883265,-0.45968673,1.7238252
2014-03-09 15:34:31.920,9.80665,-0.076614454,1.6089035
2014-03-09 15:34:31.940,10.266336,-0.11492168,1.1492168
2014-03-09 15:34:31.950,10.802638,-0.6512229,0.5746084
2014-03-09 15:34:31.970,10.342952,0.15322891,1.4939818
2014-03-09 15:34:31.991,9.959879,2.6048915,3.1411927
2014-03-09 15:34:32.001,9.730036,3.4476504,1.9919758
2014-03-09 15:34:32.019,9.691729,1.6089035,-0.38307226
2014-03-09 15:34:32.030,8.465898,0.49799395,0.9959879
2014-03-09 15:34:32.050,8.695741,-0.38307226,1.7621324
2014-03-09 15:34:32.060,9.040505,-1.0726024,1.2641385
2014-03-09 15:34:32.079,9.423578,-1.6089035,1.0342951
2014-03-09 15:34:32.100,9.768343,-2.2984335,0.842759
2014-03-09 15:34:32.110,9.80665,-2.7581203,-0.15322891
2014-03-09 15:34:32.130,9.155427,-2.7581203,-1.340753
2014-03-09 15:34:32.142,8.504205,-2.6431987,-1.7621324
2014-03-09 15:34:32.160,8.350976,-2.1452048,-2.1452048
2014-03-09 15:34:32.180,8.42759,-1.6089035,-1.9536686
2014-03-09 15:34:32.191,8.695741,-1.4556746,-1.3024458
2014-03-09 15:34:32.210,8.734048,-1.340753,-0.842759
2014-03-09 15:34:32.221,8.580819,-1.1109096,-0.80445176
2014-03-09 15:34:32.242,8.695741,-0.842759,-0.80445176
2014-03-09 15:34:32.250,8.695741,-0.45968673,-0.8810662
2014-03-09 15:34:32.270,8.734048,-0.11492168,-0.6512229
2014-03-09 15:34:32.291,8.848969,0.19153613,-0.5746084
2014-03-09 15:34:32.301,9.155427,0.30645782,-0.5746084
2014-03-09 15:34:32.322,9.193734,0.19153613,-0.7661445
2014-03-09 15:34:32.331,9.002198,-0.22984336,-0.8810662
2014-03-09 15:34:32.350,8.772355,-0.49799395,-0.80445176
2014-03-09 15:34:32.371,8.580819,-0.5746084,-0.8810662
2014-03-09 15:34:32.380,8.734048,-0.6512229,-1.0342951
2014-03-09 15:34:32.400,9.193734,-0.6895301,-1.2258313
2014-03-09 15:34:32.411,9.346964,-0.80445176,-1.1492168
2014-03-09 15:34:32.429,9.308656,-1.0726024,-0.91937345
2014-03-09 15:34:32.449,9.308656,-1.4556746,-0.842759
2014-03-09 15:34:32.459,9.155427,-1.8004397,-0.7278373
2014-03-09 15:34:32.479,8.504205,-1.9536686,-0.80445176
2014-03-09 15:34:32.490,8.121132,-1.9153614,-0.9576807
2014-03-09 15:34:32.510,8.465898,-1.8770541,-1.3790601
2014-03-09 15:34:32.519,9.232041,-1.7621324,-1.9153614
2014-03-09 15:34:32.539,9.500193,-1.532289,-1.8004397
2014-03-09 15:34:32.564,8.810662,-1.2641385,-1.340753
2014-03-09 15:34:32.575,7.8912888,-0.9959879,-0.9576807
2014-03-09 15:34:32.599,7.5465236,-0.842759,-0.8810662
2014-03-09 15:34:32.603,7.929596,-0.7661445,-1.4173675
2014-03-09 15:34:32.619,8.619126,-0.80445176,-2.0685902
2014-03-09 15:34:32.644,8.925584,-0.91937345,-2.336741
2014-03-09 15:34:32.649,9.040505,-0.80445176,-2.2218192
2014-03-09 15:34:32.672,8.619126,-0.5363012,-1.8770541
2014-03-09 15:34:32.680,8.121132,-0.38307226,-1.532289
2014-03-09 15:34:32.699,8.082825,-0.34476504,-1.532289
2014-03-09 15:34:32.709,8.42759,-0.6512229,-1.6472107
2014-03-09 15:34:32.729,8.542512,-0.9576807,-1.8770541
2014-03-09 15:34:32.749,8.389283,-1.2258313,-2.2601264
2014-03-09 15:34:32.759,9.308656,-1.1875241,-2.2218192
2014-03-09 15:34:32.779,10.994174,-0.45968673,-1.2641385
2014-03-09 15:34:32.790,12.679692,0.2681506,0.7278373
2014-03-09 15:34:32.810,13.790602,1.8387469,0.5363012
2014-03-09 15:34:32.830,13.67568,1.9153614,2.2218192
2014-03-09 15:34:32.840,12.679692,1.1109096,3.8307228
2014-03-09 15:34:32.859,11.87524,0.8810662,3.1794999
2014-03-09 15:34:32.870,11.262324,0.4213795,3.217807
2014-03-09 15:34:32.900,10.726024,0.15322891,3.1794999
2014-03-09 15:34:32.916,10.0748005,0.15322891,2.834735
2014-03-09 15:34:32.926,9.232041,0.38307226,2.4516625
2014-03-09 15:34:32.951,8.772355,0.5746084,1.9536686
2014-03-09 15:34:32.953,8.350976,0.49799395,1.5705963
2014-03-09 15:34:32.970,8.121132,0.4213795,1.1109096
2014-03-09 15:34:32.980,7.8912888,0.38307226,0.4213795
2014-03-09 15:34:33.000,8.082825,0.5363012,0.038307227
2014-03-09 15:34:33.019,8.350976,0.91937345,0.38307226
2014-03-09 15:34:33.030,8.734048,1.685518,0.7661445
2014-03-09 15:34:33.050,8.963891,2.183512,0.7278373
2014-03-09 15:34:33.060,9.270349,2.4133554,0.842759
2014-03-09 15:34:33.079,9.844957,2.2984335,0.80445176
2014-03-09 15:34:33.100,9.844957,1.9153614,0.6895301
2014-03-09 15:34:33.110,9.998186,1.3790601,0.7278373
2014-03-09 15:34:33.133,10.342952,0.7278373,0.80445176
2014-03-09 15:34:33.152,10.496181,0.38307226,1.1109096
2014-03-09 15:34:33.161,10.496181,0.2681506,1.3790601
2014-03-09 15:34:33.179,9.423578,0.076614454,1.4939818
2014-03-09 15:34:33.191,8.504205,-0.11492168,1.6472107
2014-03-09 15:34:33.210,8.274361,-0.34476504,1.5705963
2014-03-09 15:34:33.222,9.040505,-0.61291564,1.3790601
2014-03-09 15:34:33.246,9.691729,-0.5363012,1.1875241
2014-03-09 15:34:33.250,9.653421,-0.34476504,1.1492168
2014-03-09 15:34:33.270,9.155427,0.15322891,0.91937345
2014-03-09 15:34:33.291,9.11712,0.5746084,0.91937345
2014-03-09 15:34:33.301,9.155427,0.7661445,0.80445176
2014-03-09 15:34:33.322,9.653421,0.6895301,0.91937345
2014-03-09 15:34:33.331,9.80665,0.6512229,0.8810662
2014-03-09 15:34:33.350,9.615114,0.6512229,0.9959879
2014-03-09 15:34:33.371,9.80665,0.6895301,1.2641385
2014-03-09 15:34:33.385,9.768343,0.6895301,1.4556746
2014-03-09 15:34:33.401,9.921572,0.6895301,1.7621324
2014-03-09 15:34:33.411,9.80665,0.6895301,1.7621324
2014-03-09 15:34:33.429,9.576807,0.80445176,1.8770541
2014-03-09 15:34:33.449,9.078813,0.80445176,1.9536686
2014-03-09 15:34:33.459,8.963891,0.8810662,2.1452048
2014-03-09 15:34:33.479,8.925584,1.0342951,2.2218192
2014-03-09 15:34:33.490,9.155427,1.3024458,1.9919758
2014-03-09 15:34:33.510,9.270349,1.4939818,1.4556746
2014-03-09 15:34:33.523,9.155427,1.5705963,1.2641385
2014-03-09 15:34:33.542,8.772355,1.6089035,1.2641385
2014-03-09 15:34:33.562,8.810662,1.4173675,1.4939818
2014-03-09 15:34:33.571,9.155427,1.1492168,1.532289
2014-03-09 15:34:33.591,9.385271,0.9959879,1.2258313
2014-03-09 15:34:33.602,9.653421,1.0342951,1.0342951
2014-03-09 15:34:33.680,9.691729,1.0342951,0.842759
2014-03-09 15:34:33.682,9.500193,1.2258313,0.19153613
2014-03-09 15:34:33.685,9.346964,1.3024458,0.19153613
2014-03-09 15:34:33.692,9.883265,1.3790601,-0.076614454
2014-03-09 15:34:33.695,9.11712,1.2258313,0.076614454
2014-03-09 15:34:33.700,8.236053,0.9959879,0.45968673
2014-03-09 15:34:33.710,8.42759,0.7278373,0.9576807
2014-03-09 15:34:33.729,8.772355,0.5363012,1.3024458
2014-03-09 15:34:33.751,9.461885,0.5746084,1.1875241
2014-03-09 15:34:33.759,9.155427,0.61291564,1.0342951
2014-03-09 15:34:33.779,8.619126,0.80445176,0.8810662
2014-03-09 15:34:33.791,9.155427,1.1109096,0.842759
2014-03-09 15:34:33.810,9.691729,1.2258313,1.1492168
2014-03-09 15:34:33.830,9.5385,1.0342951,0.80445176
2014-03-09 15:34:33.840,9.80665,1.0342951,0.5746084
2014-03-09 15:34:33.859,10.113108,1.4173675,1.0726024
2014-03-09 15:34:33.870,9.385271,1.685518,1.2258313
2014-03-09 15:34:33.895,8.963891,1.7238252,0.7661445
2014-03-09 15:34:33.899,8.772355,1.6472107,0.6895301
2014-03-09 15:34:33.921,8.848969,1.8770541,0.80445176
2014-03-09 15:34:33.940,9.002198,1.5705963,-0.076614454
2014-03-09 15:34:33.950,9.193734,1.2641385,0.076614454
2014-03-09 15:34:33.969,9.691729,1.3024458,0.7661445
2014-03-09 15:34:33.979,9.653421,1.2641385,1.1875241
2014-03-09 15:34:33.999,9.232041,0.8810662,1.1109096
2014-03-09 15:34:34.019,9.576807,0.34476504,1.3024458
2014-03-09 15:34:34.029,10.840945,0.038307227,1.1875241
2014-03-09 15:34:34.062,10.496181,0.30645782,1.3790601
2014-03-09 15:34:34.077,9.921572,-0.038307227,0.8810662
2014-03-09 15:34:34.107,9.691729,-0.15322891,0.9959879
2014-03-09 15:34:34.125,9.500193,0.5746084,1.0726024
2014-03-09 15:34:34.127,9.5385,1.0342951,1.1875241
2014-03-09 15:34:34.139,9.691729,1.1492168,1.0726024
2014-03-09 15:34:34.148,9.576807,1.4556746,0.7661445
2014-03-09 15:34:34.158,9.768343,1.4939818,0.5746084
2014-03-09 15:34:34.169,9.844957,1.4556746,0.7661445
2014-03-09 15:34:34.189,9.308656,1.5705963,0.45968673
2014-03-09 15:34:34.209,9.653421,1.7238252,0.30645782
2014-03-09 15:34:34.219,9.653421,1.8004397,0.91937345
2014-03-09 15:34:34.239,9.385271,1.685518,1.1492168
2014-03-09 15:34:34.249,9.385271,1.2258313,0.80445176
2014-03-09 15:34:34.270,9.423578,0.91937345,0.6512229
2014-03-09 15:34:34.290,9.80665,1.2258313,0.7661445
2014-03-09 15:34:34.299,9.768343,0.8810662,1.0342951
2014-03-09 15:34:34.322,9.5385,0.4213795,1.340753
2014-03-09 15:34:34.330,9.308656,0.30645782,1.340753
2014-03-09 15:34:34.351,9.423578,0.49799395,1.1492168
2014-03-09 15:34:34.371,9.730036,0.61291564,1.1492168
2014-03-09 15:34:34.379,9.921572,0.49799395,1.1875241
2014-03-09 15:34:34.398,9.730036,0.2681506,1.340753
2014-03-09 15:34:34.409,9.193734,0.22984336,1.340753
2014-03-09 15:34:34.429,9.461885,0.038307227,1.2258313
2014-03-09 15:34:34.439,10.0748005,0.11492168,1.1109096
2014-03-09 15:34:34.458,10.151415,0.4213795,1.1109096
2014-03-09 15:34:34.473,9.844957,0.49799395,1.4939818
2014-03-09 15:34:34.492,9.883265,0.5363012,1.340753
2014-03-09 15:34:34.511,10.0748005,0.38307226,1.340753
2014-03-09 15:34:34.521,9.155427,0.5746084,0.9959879
2014-03-09 15:34:34.540,9.500193,0.5363012,1.0726024
2014-03-09 15:34:34.559,9.844957,0.7278373,0.8810662
2014-03-09 15:34:34.571,10.189722,0.9576807,0.9959879
2014-03-09 15:34:34.596,9.959879,0.80445176,1.1492168
2014-03-09 15:34:34.604,9.078813,0.6512229,1.0726024
2014-03-09 15:34:34.621,8.772355,0.6895301,0.91937345
2014-03-09 15:34:34.632,8.772355,0.9576807,0.9576807
2014-03-09 15:34:34.652,9.002198,1.2641385,1.4556746
2014-03-09 15:34:34.670,8.6574335,1.0726024,1.4173675
2014-03-09 15:34:34.679,9.078813,0.8810662,1.5705963
2014-03-09 15:34:34.700,9.500193,0.61291564,1.1492168
2014-03-09 15:34:34.711,9.5385,0.4213795,1.0342951
2014-03-09 15:34:34.731,9.040505,0.4213795,1.1492168
2014-03-09 15:34:34.751,8.963891,0.5363012,1.3790601
2014-03-09 15:34:34.761,8.925584,0.6512229,1.3024458
2014-03-09 15:34:34.780,9.500193,0.842759,1.2258313
2014-03-09 15:34:34.792,9.959879,1.1492168,1.2258313
2014-03-09 15:34:34.812,9.500193,0.80445176,1.0726024
2014-03-09 15:34:34.822,9.653421,0.2681506,0.9959879
2014-03-09 15:34:34.839,9.80665,0.4213795,0.9576807
2014-03-09 15:34:34.858,9.615114,0.6512229,1.2258313
2014-03-09 15:34:34.869,9.500193,0.2681506,1.4939818
2014-03-09 15:34:34.892,9.653421,0.076614454,1.3790601
2014-03-09 15:34:34.909,9.423578,0.15322891,0.9576807
2014-03-09 15:34:34.919,9.844957,0.11492168,1.0726024
2014-03-09 15:34:34.940,9.461885,0.45968673,1.0342951
2014-03-09 15:34:34.949,9.5385,0.4213795,0.842759
2014-03-09 15:34:34.981,10.151415,0.5363012,0.91937345
2014-03-09 15:34:34.983,10.189722,0.5363012,1.1875241
2014-03-09 15:34:35.000,9.768343,0.4213795,1.5705963
2014-03-09 15:34:35.020,9.155427,0.15322891,1.3790601
2014-03-09 15:34:35.030,9.346964,0.30645782,0.91937345
2014-03-09 15:34:35.050,9.691729,0.5363012,1.1492168
2014-03-09 15:34:35.062,9.921572,0.61291564,1.5705963
2014-03-09 15:34:35.080,9.844957,0.5746084,1.7238252
2014-03-09 15:34:35.092,8.848969,0.49799395,1.532289
2014-03-09 15:34:35.110,8.619126,0.49799395,1.1492168
2014-03-09 15:34:35.131,9.423578,0.61291564,1.3790601
2014-03-09 15:34:35.143,9.691729,0.61291564,1.8004397
2014-03-09 15:34:35.161,9.346964,0.49799395,2.030283
2014-03-09 15:34:35.171,8.580819,0.4213795,1.5705963
2014-03-09 15:34:35.202,9.040505,0.49799395,1.1875241
2014-03-09 15:34:35.214,9.5385,0.80445176,1.3024458
2014-03-09 15:34:35.224,8.925584,1.1109096,1.4939818
2014-03-09 15:34:35.240,8.465898,0.9576807,1.6472107
2014-03-09 15:34:35.249,9.11712,0.6512229,1.8004397
2014-03-09 15:34:35.269,9.5385,0.7278373,1.9153614
2014-03-09 15:34:35.300,9.730036,0.61291564,2.1068976
2014-03-09 15:34:35.305,9.921572,0.34476504,1.8770541
2014-03-09 15:34:35.319,9.959879,0.4213795,1.340753
2014-03-09 15:34:35.334,9.232041,0.6512229,1.2641385
2014-03-09 15:34:35.349,8.504205,0.91937345,1.0726024
2014-03-09 15:34:35.369,9.500193,0.8810662,1.532289
2014-03-09 15:34:35.379,10.228029,0.9959879,1.4173675
2014-03-09 15:34:35.399,10.6877165,0.8810662,1.3024458
2014-03-09 15:34:35.409,10.534488,0.7278373,0.91937345
2014-03-09 15:34:35.429,9.576807,0.5363012,0.80445176
2014-03-09 15:34:35.439,9.615114,0.2681506,0.8810662
2014-03-09 15:34:35.459,10.151415,0.11492168,1.5705963
2014-03-09 15:34:35.479,10.0748005,-0.076614454,1.6472107
2014-03-09 15:34:35.489,9.921572,-0.15322891,1.6089035
2014-03-09 15:34:35.509,9.5385,-0.15322891,1.340753
2014-03-09 15:34:35.519,8.695741,0.038307227,0.9576807
2014-03-09 15:34:35.544,8.42759,0.22984336,0.7661445
2014-03-09 15:34:35.559,8.925584,0.4213795,1.1109096
2014-03-09 15:34:35.569,9.11712,0.6895301,1.3024458
2014-03-09 15:34:35.589,9.270349,0.80445176,1.532289
2014-03-09 15:34:35.599,9.078813,0.9959879,1.5705963
2014-03-09 15:34:35.619,8.848969,0.9959879,1.4173675
2014-03-09 15:34:35.628,8.963891,1.1875241,1.1875241
2014-03-09 15:34:35.649,10.0748005,1.7238252,1.1492168
2014-03-09 15:34:35.668,10.036493,1.685518,1.3024458
2014-03-09 15:34:35.679,9.5385,1.4173675,1.7621324
2014-03-09 15:34:35.699,9.078813,1.1492168,1.8387469
2014-03-09 15:34:35.709,8.925584,0.61291564,1.532289
2014-03-09 15:34:35.728,9.730036,0.15322891,1.1875241
2014-03-09 15:34:35.753,10.036493,0.22984336,1.2258313
2014-03-09 15:34:35.759,9.500193,0.19153613,1.4173675
2014-03-09 15:34:35.779,8.734048,0.0,1.8387469
2014-03-09 15:34:35.789,8.350976,0.11492168,1.8004397
2014-03-09 15:34:35.809,8.619126,0.076614454,1.4173675
2014-03-09 15:34:35.829,9.730036,0.30645782,1.0342951
2014-03-09 15:34:35.842,9.921572,0.7661445,0.8810662
2014-03-09 15:34:35.861,9.653421,1.1109096,1.1492168
2014-03-09 15:34:35.870,9.500193,1.340753,1.3790601
2014-03-09 15:34:35.890,8.925584,1.5705963,0.80445176
2014-03-09 15:34:35.901,9.461885,1.4556746,0.7278373
2014-03-09 15:34:35.921,9.998186,1.1875241,1.3024458
2014-03-09 15:34:35.939,9.959879,0.9959879,1.4939818
2014-03-09 15:34:35.948,9.423578,0.91937345,1.685518
2014-03-09 15:34:35.969,9.308656,0.91937345,1.340753
2014-03-09 15:34:35.979,9.730036,1.0342951,1.1875241
2014-03-09 15:34:35.999,9.998186,1.1109096,1.2641385
2014-03-09 15:34:36.020,9.844957,0.9576807,1.340753
2014-03-09 15:34:36.028,9.11712,0.49799395,1.4556746
2014-03-09 15:34:36.048,7.699753,0.11492168,1.1492168
2014-03-09 15:34:36.059,8.274361,-0.076614454,1.1109096
2014-03-09 15:34:36.080,9.270349,0.11492168,1.1109096
2014-03-09 15:34:36.089,9.385271,0.11492168,1.2258313
2014-03-09 15:34:36.109,9.768343,0.11492168,1.8387469
2014-03-09 15:34:36.129,9.270349,0.30645782,1.8004397
2014-03-09 15:34:36.140,8.734048,0.22984336,0.7278373
2014-03-09 15:34:36.160,9.423578,0.6895301,0.38307226
2014-03-09 15:34:36.169,10.036493,0.9959879,0.7278373
2014-03-09 15:34:36.189,10.266336,0.80445176,1.340753
2014-03-09 15:34:36.209,9.730036,0.6895301,1.2641385
2014-03-09 15:34:36.220,9.155427,0.5363012,0.9959879
2014-03-09 15:34:36.241,8.810662,0.45968673,0.5746084
2014-03-09 15:34:36.249,8.734048,0.5363012,0.4213795
2014-03-09 15:34:36.269,9.078813,0.7278373,0.61291564
2014-03-09 15:34:36.290,9.423578,1.1109096,0.34476504
2014-03-09 15:34:36.300,9.576807,1.3790601,0.6895301
2014-03-09 15:34:36.330,9.730036,1.0342951,0.842759
2014-03-09 15:34:36.332,9.730036,0.5746084,0.91937345
2014-03-09 15:34:36.349,9.461885,0.19153613,0.45968673
2014-03-09 15:34:36.361,9.5385,0.5363012,0.34476504
2014-03-09 15:34:36.381,9.768343,0.9959879,0.4213795
2014-03-09 15:34:36.399,9.5385,1.2258313,0.7278373
2014-03-09 15:34:36.408,9.576807,1.4173675,0.6895301
2014-03-09 15:34:36.428,9.691729,1.4939818,0.038307227
2014-03-09 15:34:36.439,10.113108,1.532289,0.30645782
2014-03-09 15:34:36.459,10.879252,1.7621324,1.1875241
2014-03-09 15:34:36.480,10.6877165,2.3750482,1.0726024
2014-03-09 15:34:36.489,10.649409,2.719813,1.1875241
2014-03-09 15:34:36.509,10.91756,2.9496565,1.4173675
2014-03-09 15:34:36.523,10.381259,3.064578,1.1492168
2014-03-09 15:34:36.542,9.768343,2.9113493,1.0726024
2014-03-09 15:34:36.560,9.500193,2.7581203,2.030283
2014-03-09 15:34:36.575,8.504205,2.2601264,2.1068976
2014-03-09 15:34:36.601,7.8912888,1.685518,2.2984335
2014-03-09 15:34:36.604,7.8529816,1.2641385,2.566584
2014-03-09 15:34:36.627,8.159439,0.9576807,2.9879637
2014-03-09 15:34:36.632,8.197746,0.49799395,3.1028855
2014-03-09 15:34:36.649,8.00621,0.2681506,2.9113493
2014-03-09 15:34:36.668,8.42759,0.2681506,2.834735
2014-03-09 15:34:36.679,8.734048,0.4213795,2.7581203
2014-03-09 15:34:36.699,8.963891,0.5746084,2.6431987
2014-03-09 15:34:36.708,9.002198,0.4213795,2.528277
2014-03-09 15:34:36.729,8.542512,0.49799395,2.4516625
2014-03-09 15:34:36.749,8.619126,0.9576807,2.4516625
2014-03-09 15:34:36.760,9.155427,1.3024458,2.336741
2014-03-09 15:34:36.781,9.883265,1.3024458,2.3750482
2014-03-09 15:34:36.790,9.5385,0.7661445,2.566584
2014-03-09 15:34:36.809,9.653421,0.5363012,2.3750482
2014-03-09 15:34:36.821,10.228029,0.6895301,2.2601264
2014-03-09 15:34:36.841,10.304645,0.9959879,1.9919758
2014-03-09 15:34:36.861,8.848969,1.1109096,1.8004397
2014-03-09 15:34:36.869,8.159439,1.1875241,1.8770541
2014-03-09 15:34:36.890,9.232041,1.6089035,2.719813
2014-03-09 15:34:36.900,10.228029,2.1068976,3.5625722
2014-03-09 15:34:36.921,10.228029,1.8387469,3.5625722
2014-03-09 15:34:36.942,9.959879,1.3790601,3.715801
2014-03-09 15:34:36.950,9.615114,1.2258313,3.4476504
2014-03-09 15:34:36.969,9.270349,1.0726024,2.681506
2014-03-09 15:34:36.981,8.963891,0.9959879,2.030283
2014-03-09 15:34:37.001,9.308656,1.0342951,1.6472107
2014-03-09 15:34:37.025,9.576807,1.0726024,1.7238252
2014-03-09 15:34:37.028,9.155427,0.9959879,1.8770541
2014-03-09 15:34:37.048,8.887277,1.0342951,1.9536686
2014-03-09 15:34:37.059,8.772355,1.1492168,1.8387469
2014-03-09 15:34:37.079,8.734048,1.3024458,1.685518
2014-03-09 15:34:37.089,9.002198,1.3790601,1.685518
2014-03-09 15:34:37.108,8.887277,1.2258313,1.6089035
2014-03-09 15:34:37.129,8.810662,1.2641385,1.7621324
2014-03-09 15:34:37.140,8.887277,1.6472107,2.0685902
2014-03-09 15:34:37.159,9.346964,1.9536686,2.2601264
2014-03-09 15:34:37.169,9.653421,2.4516625,2.4516625
2014-03-09 15:34:37.189,10.113108,3.064578,2.566584
2014-03-09 15:34:37.209,10.419566,3.6391866,2.719813
2014-03-09 15:34:37.220,10.151415,3.7541082,2.7581203
2014-03-09 15:34:37.241,9.270349,3.2561142,2.566584
2014-03-09 15:34:37.254,8.159439,2.4133554,2.336741
2014-03-09 15:34:37.269,8.465898,1.5705963,2.1068976
2014-03-09 15:34:37.290,9.193734,0.7661445,1.9536686
2014-03-09 15:34:37.300,9.80665,0.038307227,1.7621324
2014-03-09 15:34:37.320,9.768343,-0.7661445,1.4173675
2014-03-09 15:34:37.329,9.576807,-1.3790601,1.2258313
2014-03-09 15:34:37.355,9.768343,-1.4173675,1.340753
2014-03-09 15:34:37.360,9.80665,-1.2641385,1.4556746
2014-03-09 15:34:37.380,9.615114,-0.45968673,1.8387469
2014-03-09 15:34:37.400,9.500193,0.38307226,1.8004397
2014-03-09 15:34:37.409,9.232041,1.1875241,1.9919758
2014-03-09 15:34:37.429,8.963891,1.6089035,2.1068976
2014-03-09 15:34:37.440,8.734048,1.6089035,2.183512
2014-03-09 15:34:37.460,8.810662,1.7621324,2.3750482
2014-03-09 15:34:37.472,9.11712,1.8770541,2.2984335
2014-03-09 15:34:37.490,9.308656,2.030283,2.2984335
2014-03-09 15:34:37.509,9.11712,1.9919758,2.2601264
2014-03-09 15:34:37.521,8.848969,1.6089035,2.1452048
2014-03-09 15:34:37.541,8.772355,1.0726024,1.8770541
2014-03-09 15:34:37.561,9.078813,0.15322891,2.336741
2014-03-09 15:34:37.569,9.80665,-0.80445176,2.183512
2014-03-09 15:34:37.590,10.342952,-1.6089035,1.7621324
2014-03-09 15:34:37.601,10.419566,-1.9919758,1.532289
2014-03-09 15:34:37.621,10.113108,-1.8770541,1.0342951
2014-03-09 15:34:37.630,9.768343,-1.4939818,0.91937345
2014-03-09 15:34:37.649,9.5385,-1.1492168,0.6895301
2014-03-09 15:34:37.669,9.423578,-0.8810662,0.7661445
2014-03-09 15:34:37.681,9.308656,-0.842759,0.7661445
2014-03-09 15:34:37.701,9.193734,-0.7278373,0.842759
2014-03-09 15:34:37.709,9.346964,-0.5363012,1.0726024
2014-03-09 15:34:37.730,9.385271,-0.38307226,1.0342951
2014-03-09 15:34:37.749,9.11712,-0.34476504,1.0342951
2014-03-09 15:34:37.761,8.925584,-0.19153613,1.1875241
2014-03-09 15:34:37.780,9.002198,-0.038307227,1.2641385
2014-03-09 15:34:37.790,9.5385,-0.038307227,1.3790601
2014-03-09 15:34:37.809,9.959879,-0.19153613,1.3790601
2014-03-09 15:34:37.820,9.921572,-0.2681506,1.2258313
2014-03-09 15:34:37.841,9.730036,-0.38307226,1.1875241
2014-03-09 15:34:37.860,9.500193,-0.5363012,1.4173675
2014-03-09 15:34:37.869,9.461885,-0.6512229,1.4939818
2014-03-09 15:34:37.890,8.925584,-0.34476504,1.5705963
2014-03-09 15:34:37.900,8.810662,-0.038307227,1.4556746
2014-03-09 15:34:37.920,9.423578,0.19153613,1.4939818
2014-03-09 15:34:37.941,9.959879,0.30645782,1.6089035
2014-03-09 15:34:37.950,9.615114,0.2681506,1.532289
2014-03-09 15:34:37.969,9.423578,0.30645782,1.7621324
2014-03-09 15:34:37.980,9.002198,0.61291564,2.030283
2014-03-09 15:34:38.000,8.619126,0.9959879,2.030283
2014-03-09 15:34:38.020,8.580819,1.3024458,2.2218192
2014-03-09 15:34:38.030,9.193734,1.7238252,2.4133554
2014-03-09 15:34:38.049,9.998186,2.3750482,2.6048915
2014-03-09 15:34:38.060,10.0748005,2.873042,2.566584
2014-03-09 15:34:38.081,9.461885,3.1028855,2.2218192
2014-03-09 15:34:38.092,9.232041,3.217807,1.8387469
2014-03-09 15:34:38.109,9.155427,3.2944214,1.532289
2014-03-09 15:34:38.130,9.232041,3.371036,0.5746084
2014-03-09 15:34:38.142,9.385271,3.5625722,-1.685518
2014-03-09 15:34:38.161,9.385271,2.6431987,-2.1452048
2014-03-09 15:34:38.171,8.963891,1.4556746,-0.49799395
2014-03-09 15:34:38.189,9.002198,1.1875241,1.4939818
2014-03-09 15:34:38.208,9.078813,1.0726024,2.183512
2014-03-09 15:34:38.219,9.193734,0.8810662,2.1452048
2014-03-09 15:34:38.239,9.193734,1.0342951,1.5705963
2014-03-09 15:34:38.249,9.078813,1.4173675,0.9959879
2014-03-09 15:34:38.268,9.232041,1.6472107,0.61291564
2014-03-09 15:34:38.289,9.308656,1.7621324,0.6512229
2014-03-09 15:34:38.299,9.193734,1.7238252,0.9576807
2014-03-09 15:34:38.320,9.270349,1.532289,1.3790601
2014-03-09 15:34:38.330,9.423578,1.3790601,1.4556746
2014-03-09 15:34:38.355,9.423578,1.2641385,1.3790601
2014-03-09 15:34:38.360,9.078813,1.2258313,1.1109096
2014-03-09 15:34:38.380,9.078813,1.1875241,1.0726024
2014-03-09 15:34:38.399,9.461885,1.1875241,1.1875241
2014-03-09 15:34:38.409,9.730036,1.3024458,1.1492168
2014-03-09 15:34:38.428,9.844957,1.4173675,1.0726024
2014-03-09 15:34:38.440,9.921572,1.4173675,1.0726024
2014-03-09 15:34:38.460,9.768343,1.3790601,1.1875241
2014-03-09 15:34:38.481,9.500193,1.3790601,1.1875241
2014-03-09 15:34:38.490,9.385271,1.4939818,1.1875241
2014-03-09 15:34:38.509,9.270349,1.685518,1.0726024
2014-03-09 15:34:38.524,9.193734,1.9153614,0.8810662
2014-03-09 15:34:38.543,9.270349,2.030283,0.7661445
2014-03-09 15:34:38.552,9.385271,2.030283,0.842759
2014-03-09 15:34:38.570,9.423578,1.9919758,0.9959879
2014-03-09 15:34:38.593,9.385271,1.9153614,0.9959879
2014-03-09 15:34:38.601,9.385271,1.8387469,0.9576807
2014-03-09 15:34:38.621,9.385271,1.8004397,0.80445176
2014-03-09 15:34:38.632,9.346964,1.685518,0.91937345
2014-03-09 15:34:38.650,9.346964,1.6472107,1.0342951
2014-03-09 15:34:38.669,9.423578,1.6472107,1.0726024
2014-03-09 15:34:38.681,9.461885,1.4939818,1.0726024
2014-03-09 15:34:38.704,9.385271,1.3790601,1.0342951
2014-03-09 15:34:38.724,9.346964,1.2641385,1.0726024
2014-03-09 15:34:38.739,9.270349,1.1109096,1.1109096
2014-03-09 15:34:38.749,9.385271,1.0726024,1.1875241
2014-03-09 15:34:38.759,9.500193,1.0342951,1.1492168
2014-03-09 15:34:38.779,9.576807,1.1109096,1.0726024
2014-03-09 15:34:38.789,9.615114,1.2258313,1.0342951
2014-03-09 15:34:38.809,9.5385,1.2641385,1.1492168
2014-03-09 15:34:38.824,9.500193,1.1875241,1.1492168
2014-03-09 15:34:38.841,9.423578,1.1492168,1.0726024
2014-03-09 15:34:38.860,9.346964,1.1109096,1.1109096
2014-03-09 15:34:38.872,9.423578,0.9959879,1.0726024
2014-03-09 15:34:38.891,9.385271,0.9959879,1.0342951
2014-03-09 15:34:38.900,9.346964,0.91937345,1.0342951
2014-03-09 15:34:38.920,9.308656,0.91937345,1.0342951
2014-03-09 15:34:38.932,9.308656,0.9576807,1.1875241
2014-03-09 15:34:38.950,9.385271,0.9576807,1.3024458
2014-03-09 15:34:38.970,9.461885,0.9576807,1.1875241
2014-03-09 15:34:38.980,9.385271,0.9959879,1.0726024
2014-03-09 15:34:39.000,9.308656,1.0726024,1.1492168
2014-03-09 15:34:39.011,9.346964,1.1492168,1.2258313
2014-03-09 15:34:39.030,9.385271,1.2258313,1.1492168
2014-03-09 15:34:39.052,9.500193,1.3024458,0.9576807
2014-03-09 15:34:39.060,9.5385,1.340753,0.8810662
2014-03-09 15:34:39.079,9.423578,1.3024458,1.0342951
2014-03-09 15:34:39.091,9.346964,1.2641385,1.1109096
2014-03-09 15:34:39.109,9.232041,1.1875241,1.1492168
2014-03-09 15:34:39.129,9.232041,1.0726024,1.1109096
2014-03-09 15:34:39.146,9.385271,1.0342951,1.2258313
2014-03-09 15:34:39.159,9.461885,1.0342951,1.2258313
2014-03-09 15:34:39.169,9.423578,1.1109096,1.1492168
2014-03-09 15:34:39.189,9.346964,1.1109096,1.1492168
2014-03-09 15:34:39.208,9.346964,1.1109096,1.2258313
2014-03-09 15:34:39.220,9.385271,1.1109096,1.340753
2014-03-09 15:34:39.240,9.308656,1.1109096,1.4939818
2014-03-09 15:34:39.254,9.385271,1.1109096,1.340753
2014-03-09 15:34:39.269,9.461885,1.0342951,1.1109096
2014-03-09 15:34:39.280,9.461885,1.1109096,1.0342951
2014-03-09 15:34:39.300,9.461885,1.1492168,1.0726024
2014-03-09 15:34:39.320,9.385271,1.1109096,1.2641385
2014-03-09 15:34:39.329,9.346964,1.1492168,1.3024458
2014-03-09 15:34:39.349,9.308656,1.1875241,1.2641385
2014-03-09 15:34:39.360,9.346964,1.1492168,1.1875241
2014-03-09 15:34:39.380,9.385271,1.1875241,1.1109096
2014-03-09 15:34:39.399,9.385271,1.2258313,1.0726024
2014-03-09 15:34:39.409,9.461885,1.2258313,0.9959879
2014-03-09 15:34:39.431,9.385271,1.2258313,1.0726024
2014-03-09 15:34:39.441,9.385271,1.2258313,1.1875241
2014-03-09 15:34:39.460,9.385271,1.1875241,1.2258313
2014-03-09 15:34:39.490,9.461885,1.1875241,1.1109096
2014-03-09 15:34:39.509,9.500193,1.2258313,0.91937345
2014-03-09 15:34:39.520,9.461885,1.1492168,0.9576807
2014-03-09 15:34:39.541,9.385271,1.1109096,1.0726024
2014-03-09 15:34:39.552,9.346964,1.1109096,1.1875241
2014-03-09 15:34:39.569,9.270349,1.0726024,1.2641385
2014-03-09 15:34:39.603,9.346964,1.0726024,1.1109096
2014-03-09 15:34:39.605,9.461885,1.0726024,0.9576807
2014-03-09 15:34:39.620,9.5385,1.0342951,0.9576807
2014-03-09 15:34:39.631,9.500193,1.0726024,1.0342951
2014-03-09 15:34:39.650,9.385271,1.1109096,1.1875241
2014-03-09 15:34:39.670,9.385271,1.1109096,1.2258313
2014-03-09 15:34:39.680,9.385271,1.1109096,1.1492168
2014-03-09 15:34:39.700,9.385271,1.1492168,1.0342951
2014-03-09 15:34:39.710,9.461885,1.2258313,0.9576807
2014-03-09 15:34:39.730,9.461885,1.2258313,1.0342951
2014-03-09 15:34:39.741,9.423578,1.2641385,1.1492168
2014-03-09 15:34:39.760,9.385271,1.3024458,1.1875241
2014-03-09 15:34:39.780,9.308656,1.3790601,1.1875241
2014-03-09 15:34:39.792,9.270349,1.4173675,1.1109096
2014-03-09 15:34:39.810,9.308656,1.4173675,1.0726024
2014-03-09 15:34:39.820,9.346964,1.3790601,1.0726024
2014-03-09 15:34:39.841,9.385271,1.340753,1.1109096
2014-03-09 15:34:39.860,9.346964,1.3024458,1.1109096
2014-03-09 15:34:39.870,9.308656,1.3024458,1.0726024
2014-03-09 15:34:39.891,9.308656,1.2641385,1.0342951
2014-03-09 15:34:39.900,9.423578,1.2258313,1.0342951
2014-03-09 15:34:39.920,9.5385,1.1492168,1.0726024
2014-03-09 15:34:39.931,9.5385,1.1492168,1.2258313
2014-03-09 15:34:39.951,9.385271,1.2258313,1.1875241
2014-03-09 15:34:39.970,9.385271,1.2258313,1.1109096
2014-03-09 15:34:39.980,9.423578,1.0726024,1.0726024
2014-03-09 15:34:40.000,9.346964,1.0342951,1.1109096
2014-03-09 15:34:40.010,9.346964,1.0726024,1.0726024
2014-03-09 15:34:40.030,9.423578,1.1492168,1.0342951
2014-03-09 15:34:40.049,9.461885,1.2258313,1.0726024
2014-03-09 15:34:40.060,9.423578,1.2641385,1.1875241
2014-03-09 15:34:40.080,9.308656,1.3024458,1.1875241
2014-03-09 15:34:40.091,9.193734,1.340753,1.0726024
2014-03-09 15:34:40.109,9.308656,1.3024458,1.0342951
2014-03-09 15:34:40.129,9.385271,1.2641385,0.9959879
2014-03-09 15:34:40.141,9.385271,1.2641385,1.0342951
2014-03-09 15:34:40.160,9.461885,1.2258313,1.1109096
2014-03-09 15:34:40.172,9.500193,1.2641385,1.1492168
2014-03-09 15:34:40.189,9.461885,1.2641385,1.1875241
2014-03-09 15:34:40.199,9.346964,1.3024458,1.1875241
2014-03-09 15:34:40.220,9.270349,1.3024458,1.1109096
2014-03-09 15:34:40.240,9.308656,1.2641385,1.1109096
2014-03-09 15:34:40.249,9.346964,1.2258313,1.1492168
2014-03-09 15:34:40.272,9.423578,1.2258313,1.1109096
2014-03-09 15:34:40.282,9.423578,1.3024458,1.0726024
2014-03-09 15:34:40.301,9.346964,1.3790601,1.1109096
2014-03-09 15:34:40.321,9.232041,1.3790601,1.2641385
2014-03-09 15:34:40.330,9.155427,1.340753,1.3024458
2014-03-09 15:34:40.349,9.270349,1.3790601,1.1109096
2014-03-09 15:34:40.371,9.500193,1.3024458,1.1492168
2014-03-09 15:34:40.379,9.5385,1.3790601,1.2641385
2014-03-09 15:34:40.411,9.423578,1.4173675,1.340753
2014-03-09 15:34:40.415,9.308656,1.4173675,1.2258313
2014-03-09 15:34:40.428,9.308656,1.3790601,1.1875241
2014-03-09 15:34:40.445,9.270349,1.340753,1.1875241
2014-03-09 15:34:40.460,9.270349,1.2258313,1.2641385
2014-03-09 15:34:40.469,9.308656,1.2258313,1.2258313
2014-03-09 15:34:40.489,9.385271,1.3790601,1.1109096
2014-03-09 15:34:40.508,9.423578,1.5705963,1.0726024
2014-03-09 15:34:40.519,9.461885,1.7238252,1.1492168
2014-03-09 15:34:40.539,9.500193,1.8004397,1.1492168
2014-03-09 15:34:40.548,9.423578,1.7238252,1.1875241
2014-03-09 15:34:40.569,9.270349,1.532289,1.3024458
2014-03-09 15:34:40.589,9.232041,1.340753,1.3024458
2014-03-09 15:34:40.600,9.270349,1.3024458,1.1492168
2014-03-09 15:34:40.623,9.270349,1.1875241,1.1492168
2014-03-09 15:34:40.632,9.270349,1.2258313,1.1492168
2014-03-09 15:34:40.649,9.385271,1.1875241,1.3024458
2014-03-09 15:34:40.669,9.576807,1.1492168,1.3024458
2014-03-09 15:34:40.681,9.576807,1.0726024,1.1875241
2014-03-09 15:34:40.700,9.423578,1.0726024,1.2258313
2014-03-09 15:34:40.709,9.308656,1.1492168,1.2641385
2014-03-09 15:34:40.730,9.308656,1.1875241,1.2641385
2014-03-09 15:34:40.751,9.385271,1.1875241,1.2258313
2014-03-09 15:34:40.764,9.423578,1.2641385,1.1875241
2014-03-09 15:34:40.780,9.385271,1.3024458,1.1492168
2014-03-09 15:34:40.790,9.385271,1.340753,1.1875241
2014-03-09 15:34:40.809,9.346964,1.340753,1.2258313
2014-03-09 15:34:40.820,9.308656,1.2258313,1.2258313
2014-03-09 15:34:40.841,9.346964,1.1492168,1.1492168
2014-03-09 15:34:40.860,9.423578,1.1492168,1.0342951
2014-03-09 15:34:40.869,9.576807,1.1492168,1.1109096
2014-03-09 15:34:40.890,9.500193,1.1875241,1.1875241
2014-03-09 15:34:40.900,9.346964,1.1109096,1.1875241
2014-03-09 15:34:40.921,9.423578,1.0342951,1.0342951
2014-03-09 15:34:40.930,9.385271,1.1109096,0.9576807
2014-03-09 15:34:40.949,9.346964,1.1875241,1.1109096
2014-03-09 15:34:40.969,9.385271,1.2258313,1.3024458
2014-03-09 15:34:40.981,9.423578,1.1875241,1.340753
2014-03-09 15:34:41.001,9.423578,1.2258313,1.340753
2014-03-09 15:34:41.009,9.385271,1.1875241,1.2258313
2014-03-09 15:34:41.030,9.308656,1.2258313,1.1492168
2014-03-09 15:34:41.049,9.423578,1.1109096,1.1492168
2014-03-09 15:34:41.061,9.385271,0.9959879,1.1875241
2014-03-09 15:34:41.081,9.461885,1.0342951,1.1875241
2014-03-09 15:34:41.090,9.500193,1.1875241,1.2641385
2014-03-09 15:34:41.109,9.461885,1.2258313,1.3790601
2014-03-09 15:34:41.130,9.423578,1.2641385,1.3790601
2014-03-09 15:34:41.141,9.423578,1.3024458,1.2641385
2014-03-09 15:34:41.160,9.346964,1.3790601,1.3024458
2014-03-09 15:34:41.169,9.232041,1.3790601,1.340753
2014-03-09 15:34:41.190,9.193734,1.340753,1.4556746
2014-03-09 15:34:41.200,9.193734,1.340753,1.5705963
2014-03-09 15:34:41.220,9.346964,1.2641385,1.4939818
2014-03-09 15:34:41.242,9.500193,1.1875241,1.340753
2014-03-09 15:34:41.250,9.500193,1.0726024,1.2258313
2014-03-09 15:34:41.275,9.385271,0.9959879,1.1875241
2014-03-09 15:34:41.280,9.155427,0.8810662,1.340753
2014-03-09 15:34:41.300,9.078813,0.80445176,1.3790601
2014-03-09 15:34:41.321,9.576807,0.80445176,1.7238252
2014-03-09 15:34:41.330,9.615114,0.7661445,1.8004397
2014-03-09 15:34:41.349,9.423578,0.80445176,1.4556746
2014-03-09 15:34:41.360,9.461885,1.0342951,1.3790601
2014-03-09 15:34:41.379,9.500193,1.2258313,1.532289
2014-03-09 15:34:41.399,9.385271,1.3790601,1.685518
2014-03-09 15:34:41.409,9.11712,1.2641385,1.9919758
2014-03-09 15:34:41.428,9.040505,0.91937345,2.1068976
2014-03-09 15:34:41.441,9.155427,0.8810662,2.1452048
2014-03-09 15:34:41.459,9.308656,0.8810662,2.0685902
2014-03-09 15:34:41.469,9.308656,0.842759,1.8004397
2014-03-09 15:34:41.489,9.193734,0.91937345,1.4939818
2014-03-09 15:34:41.509,9.078813,1.1109096,1.4556746
2014-03-09 15:34:41.519,9.078813,1.3024458,1.4939818
2014-03-09 15:34:41.539,9.155427,1.4173675,1.5705963
2014-03-09 15:34:41.549,9.155427,1.2641385,1.685518
2014-03-09 15:34:41.569,9.193734,0.9576807,1.685518
2014-03-09 15:34:41.589,9.078813,0.6512229,1.4173675
2014-03-09 15:34:41.599,9.11712,0.2681506,1.2641385
2014-03-09 15:34:41.619,9.232041,-0.076614454,1.1492168
2014-03-09 15:34:41.628,9.078813,-0.2681506,1.340753
2014-03-09 15:34:41.648,9.653421,-0.6512229,0.842759
2014-03-09 15:34:41.659,10.496181,-1.2258313,0.34476504
2014-03-09 15:34:41.679,10.994174,-1.685518,-0.038307227
2014-03-09 15:34:41.699,10.6877165,-1.9536686,-0.22984336
2014-03-09 15:34:41.709,10.228029,-1.8387469,-0.11492168
2014-03-09 15:34:41.729,9.5385,-1.2641385,0.38307226
2014-03-09 15:34:41.742,9.385271,-0.7661445,-0.11492168
2014-03-09 15:34:41.761,9.232041,-0.49799395,0.15322891
2014-03-09 15:34:41.781,9.040505,0.076614454,0.34476504
2014-03-09 15:34:41.791,9.040505,0.842759,-0.38307226
2014-03-09 15:34:41.810,9.002198,0.842759,-0.2681506
2014-03-09 15:34:41.822,8.734048,0.45968673,0.80445176
2014-03-09 15:34:41.842,9.040505,0.2681506,0.7661445
2014-03-09 15:34:41.862,9.80665,0.49799395,-0.076614454
2014-03-09 15:34:41.871,9.423578,0.80445176,-0.5363012
2014-03-09 15:34:41.890,9.11712,1.1875241,-0.8810662
2014-03-09 15:34:41.903,9.270349,1.4556746,-0.9959879
2014-03-09 15:34:41.922,9.346964,1.1492168,-0.5363012
2014-03-09 15:34:41.931,8.887277,1.0342951,-0.038307227
2014-03-09 15:34:41.950,8.389283,0.7661445,0.076614454
2014-03-09 15:34:41.969,8.542512,0.7278373,-0.30645782
2014-03-09 15:34:42.004,8.772355,0.7661445,-0.9576807
2014-03-09 15:34:42.016,8.810662,0.45968673,-1.2258313
2014-03-09 15:34:42.024,8.848969,0.34476504,-0.91937345
2014-03-09 15:34:42.029,8.963891,0.15322891,-0.7278373
2014-03-09 15:34:42.048,9.078813,-0.34476504,-0.4213795
2014-03-09 15:34:42.059,9.11712,-0.8810662,0.0
2014-03-09 15:34:42.079,8.887277,-1.2641385,0.11492168
2014-03-09 15:34:42.089,9.078813,-1.4556746,-0.2681506
2014-03-09 15:34:42.109,9.730036,-1.5705963,-0.7661445
2014-03-09 15:34:42.123,10.6877165,-1.6472107,-1.2641385
2014-03-09 15:34:42.142,10.572795,-1.3024458,-0.842759
2014-03-09 15:34:42.160,9.691729,-0.61291564,0.38307226
2014-03-09 15:34:42.172,9.078813,-0.2681506,1.3790601
2014-03-09 15:34:42.193,9.193734,-0.22984336,1.6472107
2014-03-09 15:34:42.200,9.691729,0.0,1.8004397
2014-03-09 15:34:42.220,9.80665,0.7661445,1.1875241
2014-03-09 15:34:42.241,9.921572,1.0342951,0.5363012
2014-03-09 15:34:42.252,9.615114,0.80445176,0.7661445
2014-03-09 15:34:42.270,9.461885,0.80445176,0.9959879
2014-03-09 15:34:42.280,9.040505,0.7661445,1.8770541
2014-03-09 15:34:42.300,8.925584,1.1875241,1.6089035
2014-03-09 15:34:42.311,8.580819,1.3024458,2.336741
2014-03-09 15:34:42.331,8.082825,1.4556746,2.030283
2014-03-09 15:34:42.351,8.887277,1.8770541,1.9919758
2014-03-09 15:34:42.361,9.155427,1.5705963,2.719813
2014-03-09 15:34:42.380,9.653421,1.685518,1.532289
2014-03-09 15:34:42.393,9.691729,1.532289,2.1452048
2014-03-09 15:34:42.410,9.040505,1.3024458,1.4556746
2014-03-09 15:34:42.430,8.963891,1.4173675,2.4516625
2014-03-09 15:34:42.442,8.542512,1.2258313,1.9919758
2014-03-09 15:34:42.460,9.078813,1.532289,2.0685902
2014-03-09 15:34:42.472,8.695741,1.3790601,2.4133554
2014-03-09 15:34:42.489,9.5385,1.7621324,1.340753
2014-03-09 15:34:42.509,9.385271,1.5705963,3.1411927
2014-03-09 15:34:42.520,10.113108,1.340753,1.532289
2014-03-09 15:34:42.540,10.228029,1.1875241,2.7581203
2014-03-09 15:34:42.549,10.113108,0.5363012,1.3790601
2014-03-09 15:34:42.569,11.109096,0.7278373,1.6089035
2014-03-09 15:34:42.589,10.266336,-0.22984336,2.834735
2014-03-09 15:34:42.600,10.611102,-0.34476504,1.9919758
2014-03-09 15:34:42.620,9.232041,-0.5746084,3.6008794
2014-03-09 15:34:42.629,7.73806,-0.4213795,2.9879637
2014-03-09 15:34:42.649,8.887277,-0.45968673,2.528277
2014-03-09 15:34:42.660,9.193734,-0.8810662,2.9496565
2014-03-09 15:34:42.679,9.040505,-0.61291564,2.4899697
2014-03-09 15:34:42.699,9.078813,-0.5746084,2.0685902
2014-03-09 15:34:42.709,8.274361,-0.22984336,2.4899697
2014-03-09 15:34:42.729,8.121132,0.22984336,2.2984335
2014-03-09 15:34:42.739,9.193734,0.7661445,1.6472107
2014-03-09 15:34:42.759,9.615114,1.1109096,1.9919758
2014-03-09 15:34:42.779,9.80665,1.340753,2.4133554
2014-03-09 15:34:42.789,9.576807,1.2258313,2.681506
2014-03-09 15:34:42.811,9.844957,0.842759,2.4516625
2014-03-09 15:34:42.820,10.534488,-0.15322891,2.4899697
2014-03-09 15:34:42.841,10.342952,-0.80445176,2.719813
2014-03-09 15:34:42.860,10.0748005,-0.9576807,2.6431987
2014-03-09 15:34:42.870,10.151415,-0.6895301,2.834735
2014-03-09 15:34:42.890,9.998186,-0.15322891,2.7964275
2014-03-09 15:34:42.900,9.500193,0.2681506,2.2218192
2014-03-09 15:34:42.920,8.963891,0.6512229,2.183512
2014-03-09 15:34:42.932,8.772355,0.61291564,2.6048915
2014-03-09 15:34:42.950,9.270349,0.19153613,2.6431987
2014-03-09 15:34:42.969,9.959879,-0.19153613,2.2601264
2014-03-09 15:34:42.980,10.6877165,-0.61291564,2.2218192
2014-03-09 15:34:43.000,10.496181,-1.1492168,2.4899697
2014-03-09 15:34:43.010,9.576807,-1.9153614,2.6048915
2014-03-09 15:34:43.031,8.619126,-1.6089035,1.9536686
2014-03-09 15:34:43.050,9.002198,-0.61291564,1.532289
2014-03-09 15:34:43.060,9.11712,0.22984336,1.4173675
2014-03-09 15:34:43.080,8.6574335,0.45968673,1.532289
2014-03-09 15:34:43.091,8.504205,0.19153613,1.6472107
2014-03-09 15:34:43.109,9.11712,-0.6512229,1.8387469
2014-03-09 15:34:43.120,9.615114,-1.4556746,2.183512
2014-03-09 15:34:43.141,9.500193,-1.6089035,2.3750482
2014-03-09 15:34:43.160,9.576807,-1.7621324,2.336741
2014-03-09 15:34:43.173,9.959879,-1.4556746,1.4556746
2014-03-09 15:34:43.191,10.457873,-0.9576807,0.9576807
2014-03-09 15:34:43.200,9.921572,-0.49799395,1.340753
2014-03-09 15:34:43.220,8.0445175,-0.49799395,1.0342951
2014-03-09 15:34:43.241,7.8529816,-0.6512229,1.685518
2014-03-09 15:34:43.251,9.155427,2.4133554,2.2601264
2014-03-09 15:34:43.270,4.0222588,16.816874,-2.2218192
2014-03-09 15:34:43.285,14.863204,-11.760319,1.7238252
2014-03-09 15:34:43.300,11.683704,-12.488156,1.1875241
2014-03-09 15:34:43.321,9.078813,-5.592855,0.61291564
2014-03-09 15:34:43.330,10.496181,-5.3247046,1.1492168
2014-03-09 15:34:43.349,10.457873,-4.098873,0.45968673
2014-03-09 15:34:43.359,10.266336,-3.6774938,-0.7661445
2014-03-09 15:34:43.380,9.423578,-3.4476504,-0.34476504
2014-03-09 15:34:43.390,9.5385,-2.528277,0.4213795
2014-03-09 15:34:43.410,10.189722,-2.2218192,-0.15322891
2014-03-09 15:34:43.429,9.5385,-1.7621324,-0.45968673
2014-03-09 15:34:43.440,9.346964,-1.9536686,0.45968673
2014-03-09 15:34:43.460,9.002198,-2.183512,0.6512229
2014-03-09 15:34:43.474,9.959879,-1.9536686,-0.038307227
2014-03-09 15:34:43.491,8.389283,-2.9113493,-0.076614454
2014-03-09 15:34:43.509,10.0748005,-1.4939818,0.7661445
2014-03-09 15:34:43.521,8.695741,-2.4133554,0.9959879
2014-03-09 15:34:43.542,9.959879,-2.4133554,0.19153613
2014-03-09 15:34:43.553,8.542512,-2.528277,1.1109096
2014-03-09 15:34:43.571,10.381259,-1.4556746,0.6895301
2014-03-09 15:34:43.579,7.8912888,-2.6048915,0.6512229
2014-03-09 15:34:43.600,10.764331,-1.3024458,1.0342951
2014-03-09 15:34:43.620,8.121132,-1.9536686,1.532289
2014-03-09 15:34:43.628,9.346964,-2.719813,0.6895301
2014-03-09 15:34:43.648,8.580819,-1.6089035,0.9576807
2014-03-09 15:34:43.660,8.810662,-2.6048915,1.0342951
2014-03-09 15:34:43.681,9.883265,-0.9576807,1.3024458
2014-03-09 15:34:43.702,8.0445175,-3.2561142,0.6512229
2014-03-09 15:34:43.711,10.228029,-0.80445176,1.2258313
2014-03-09 15:34:43.731,6.742072,-2.528277,1.1875241
2014-03-09 15:34:43.741,11.262324,-1.4173675,1.2258313
2014-03-09 15:34:43.761,9.346964,-0.7278373,1.8770541
2014-03-09 15:34:43.771,8.312668,-3.1794999,0.49799395
2014-03-09 15:34:43.789,9.883265,-1.2258313,1.9536686
2014-03-09 15:34:43.809,8.580819,-1.685518,0.91937345
2014-03-09 15:34:43.819,8.00621,-2.566584,0.4213795
2014-03-09 15:34:43.840,11.453861,0.15322891,1.7621324
2014-03-09 15:34:43.848,8.810662,-1.3790601,1.1492168
2014-03-09 15:34:43.868,6.129156,-2.566584,0.15322891
2014-03-09 15:34:43.889,12.028469,-0.6512229,1.8387469
2014-03-09 15:34:43.899,9.5385,-1.2258313,1.3024458
2014-03-09 15:34:43.930,6.167464,-2.336741,0.61291564
2014-03-09 15:34:43.932,11.109096,-0.7661445,0.6895301
2014-03-09 15:34:43.949,7.8912888,-0.5746084,0.49799395
2014-03-09 15:34:43.969,10.228029,-2.9496565,0.22984336
2014-03-09 15:34:43.981,10.840945,-0.61291564,1.3024458
2014-03-09 15:34:44.012,6.933608,-1.9536686,0.4213795
2014-03-09 15:34:44.029,9.80665,-4.098873,0.2681506
2014-03-09 15:34:44.033,11.415554,-0.61291564,0.6895301
2014-03-09 15:34:44.076,5.171476,-2.0685902,0.15322891
2014-03-09 15:34:44.078,12.871228,-2.9113493,-0.6895301
2014-03-09 15:34:44.091,9.768343,-1.3024458,0.80445176
2014-03-09 15:34:44.102,7.201759,-1.685518,-0.19153613
2014-03-09 15:34:44.112,10.496181,-2.528277,0.30645782
2014-03-09 15:34:44.119,10.419566,-0.5363012,0.91937345
2014-03-09 15:34:44.139,9.155427,-2.528277,0.5363012
2014-03-09 15:34:44.159,7.1251445,-2.1452048,0.5363012
2014-03-09 15:34:44.169,11.87524,-1.685518,-0.5746084
2014-03-09 15:34:44.189,9.461885,-1.8004397,0.2681506
2014-03-09 15:34:44.211,9.232041,-1.9536686,-0.15322891
2014-03-09 15:34:44.224,9.270349,-1.9919758,0.19153613
2014-03-09 15:34:44.241,9.423578,-2.9496565,0.2681506
2014-03-09 15:34:44.250,9.308656,-3.6391866,1.7238252
2014-03-09 15:34:44.274,9.346964,-3.7541082,1.3024458
2014-03-09 15:34:44.279,9.346964,-3.6008794,0.4213795
2014-03-09 15:34:44.299,9.270349,-3.1794999,0.4213795
2014-03-09 15:34:44.309,9.959879,-3.7541082,-0.34476504
2014-03-09 15:34:44.329,8.925584,-2.9496565,0.0
2014-03-09 15:34:44.350,8.925584,-2.873042,0.22984336
2014-03-09 15:34:44.360,6.435614,-1.6089035,1.532289
2014-03-09 15:34:44.379,4.9799395,-0.7278373,2.1452048
2014-03-09 15:34:44.389,4.5202527,-0.22984336,1.685518
2014-03-09 15:34:44.409,11.951855,-1.6472107,2.0685902
2014-03-09 15:34:44.429,15.093047,1.1109096,-1.1109096
2014-03-09 15:34:44.440,11.568783,-0.076614454,0.6895301
2014-03-09 15:34:44.459,9.155427,-1.2258313,1.8770541
2014-03-09 15:34:44.469,8.887277,-0.7661445,1.9919758
2014-03-09 15:34:44.489,8.734048,-0.30645782,1.4556746
2014-03-09 15:34:44.509,8.580819,-0.30645782,1.3024458
2014-03-09 15:34:44.519,8.350976,-0.5746084,0.842759
2014-03-09 15:34:44.600,8.274361,-0.91937345,0.61291564
2014-03-09 15:34:44.604,8.197746,-1.1875241,0.38307226
2014-03-09 15:34:44.608,8.0445175,-1.2641385,0.842759
2014-03-09 15:34:44.610,7.967903,-1.1492168,0.91937345
2014-03-09 15:34:44.614,8.350976,-1.1109096,1.3790601
2014-03-09 15:34:44.620,9.232041,-1.2641385,1.5705963
2014-03-09 15:34:44.629,9.80665,-1.1875241,1.4173675
2014-03-09 15:34:44.649,9.80665,-1.0726024,1.4556746
2014-03-09 15:34:44.659,9.576807,-1.0726024,1.7238252
2014-03-09 15:34:44.678,9.461885,-0.9959879,1.6472107
2014-03-09 15:34:44.699,9.5385,-0.7278373,1.9919758
2014-03-09 15:34:44.708,9.078813,-0.4213795,2.0685902
2014-03-09 15:34:44.728,8.772355,-0.11492168,1.8387469
2014-03-09 15:34:44.739,8.389283,-0.11492168,1.9919758
2014-03-09 15:34:44.758,8.0445175,-0.30645782,1.340753
2014-03-09 15:34:44.779,7.776367,-0.61291564,1.4939818
2014-03-09 15:34:44.789,7.967903,-0.91937345,1.340753
2014-03-09 15:34:44.808,8.734048,-1.2641385,0.6512229
2014-03-09 15:34:44.822,9.346964,-1.4556746,0.5363012
2014-03-09 15:34:44.841,9.5385,-1.2641385,0.5363012
2014-03-09 15:34:44.849,9.308656,-0.8810662,0.7278373
2014-03-09 15:34:44.869,9.193734,-0.5746084,0.91937345
2014-03-09 15:34:44.890,9.308656,-0.38307226,0.7278373
2014-03-09 15:34:44.900,9.232041,-0.19153613,0.9959879
2014-03-09 15:34:44.920,9.308656,-0.19153613,1.3024458
2014-03-09 15:34:44.929,9.80665,-0.5746084,1.3790601
2014-03-09 15:34:44.949,10.304645,-0.9576807,1.4939818
2014-03-09 15:34:44.969,10.419566,-1.340753,1.5705963
2014-03-09 15:34:44.980,9.959879,-1.3790601,1.4939818
2014-03-09 15:34:45.000,9.385271,-1.2258313,1.4173675
2014-03-09 15:34:45.009,9.385271,-1.0726024,1.0342951
2014-03-09 15:34:45.029,9.270349,-0.9959879,1.1492168
2014-03-09 15:34:45.041,9.270349,-1.3024458,0.7661445
2014-03-09 15:34:45.060,9.232041,-1.3790601,0.61291564
2014-03-09 15:34:45.080,8.887277,-0.7661445,0.6512229
2014-03-09 15:34:45.091,8.734048,0.0,0.5363012
2014-03-09 15:34:45.109,8.810662,-0.038307227,1.1109096
2014-03-09 15:34:45.120,9.232041,-0.8810662,0.9959879
2014-03-09 15:34:45.141,9.500193,-1.3790601,0.80445176
2014-03-09 15:34:45.160,9.461885,-1.3790601,1.2641385
2014-03-09 15:34:45.169,9.768343,-1.2641385,1.4939818
2014-03-09 15:34:45.205,9.959879,-1.1492168,1.1875241
2014-03-09 15:34:45.208,9.883265,-0.9576807,1.2641385
2014-03-09 15:34:45.220,9.461885,-0.7278373,1.0726024
2014-03-09 15:34:45.242,9.691729,-0.7278373,0.7278373
2014-03-09 15:34:45.250,9.921572,-0.91937345,0.38307226
2014-03-09 15:34:45.269,10.189722,-1.0726024,0.19153613
2014-03-09 15:34:45.281,9.883265,-1.0342951,0.11492168
2014-03-09 15:34:45.305,9.346964,-1.4173675,-0.38307226
2014-03-09 15:34:45.314,8.963891,-1.4173675,-0.5363012
2014-03-09 15:34:45.330,8.963891,-1.340753,-0.6512229
2014-03-09 15:34:45.350,9.615114,-1.4173675,-0.9959879
2014-03-09 15:34:45.362,10.189722,-1.1875241,-1.1492168
2014-03-09 15:34:45.379,10.189722,-0.91937345,-1.2258313
2014-03-09 15:34:45.389,9.423578,-1.9153614,-1.6472107
2014-03-09 15:34:45.409,8.963891,-2.4516625,-2.3750482
2014-03-09 15:34:45.429,8.504205,-2.4133554,-3.1411927
2014-03-09 15:34:45.441,8.312668,-1.8770541,-3.2561142
2014-03-09 15:34:45.461,8.6574335,-1.7238252,-2.528277
2014-03-09 15:34:45.469,9.346964,-1.8387469,-1.9153614
2014-03-09 15:34:45.490,9.232041,-1.9153614,-2.183512
2014-03-09 15:34:45.512,8.810662,-1.8387469,-2.3750482
2014-03-09 15:34:45.523,8.6574335,-2.183512,-2.4133554
2014-03-09 15:34:45.544,8.42759,-2.2218192,-2.336741
2014-03-09 15:34:45.554,8.734048,-2.566584,-2.2218192
2014-03-09 15:34:45.572,9.500193,-2.681506,-1.9153614
2014-03-09 15:34:45.579,9.576807,-2.336741,-1.9919758
2014-03-09 15:34:45.599,9.844957,-1.9536686,-2.030283
2014-03-09 15:34:45.619,9.730036,-1.4556746,-2.2218192
2014-03-09 15:34:45.629,9.193734,-1.1109096,-2.030283
2014-03-09 15:34:45.648,8.810662,-0.842759,-2.2218192
2014-03-09 15:34:45.660,8.695741,-0.7278373,-2.4899697
2014-03-09 15:34:45.680,8.465898,-0.4213795,-2.873042
2014-03-09 15:34:45.700,8.350976,-0.38307226,-2.9113493
2014-03-09 15:34:45.711,8.121132,-0.38307226,-2.2984335
2014-03-09 15:34:45.730,7.929596,-0.5363012,-1.8387469
2014-03-09 15:34:45.742,8.082825,-0.5746084,-1.9919758
2014-03-09 15:34:45.761,8.350976,-0.45968673,-2.2218192
2014-03-09 15:34:45.780,8.772355,-0.30645782,-2.2601264
2014-03-09 15:34:45.792,9.11712,-0.34476504,-1.8770541
2014-03-09 15:34:45.810,9.232041,-0.49799395,-1.685518
2014-03-09 15:34:45.820,9.193734,-0.5363012,-1.4939818
2014-03-09 15:34:45.841,9.270349,-0.61291564,-0.8810662
2014-03-09 15:34:45.851,9.385271,-0.7278373,-0.61291564
2014-03-09 15:34:45.870,9.576807,-0.6895301,-0.5746084
2014-03-09 15:34:45.891,9.308656,-0.61291564,-0.30645782
2014-03-09 15:34:45.901,9.193734,-0.6895301,-0.7661445
2014-03-09 15:34:45.921,9.040505,-0.7661445,-0.7278373
2014-03-09 15:34:45.932,9.193734,-0.80445176,-1.0342951
2014-03-09 15:34:45.951,9.500193,-0.7661445,-1.1492168
2014-03-09 15:34:45.971,9.768343,-0.49799395,-1.6472107
2014-03-09 15:34:45.979,9.768343,-0.15322891,-1.1492168
2014-03-09 15:34:45.999,9.423578,0.11492168,-0.9959879
2014-03-09 15:34:46.009,9.270349,0.2681506,-0.5746084
2014-03-09 15:34:46.029,9.11712,0.34476504,-0.7278373
2014-03-09 15:34:46.039,9.040505,0.34476504,-0.7278373
2014-03-09 15:34:46.059,9.040505,0.076614454,-0.45968673
2014-03-09 15:34:46.079,9.11712,-0.076614454,-0.8810662
2014-03-09 15:34:46.089,9.11712,-0.19153613,-1.2258313
2014-03-09 15:34:46.109,8.963891,-0.15322891,-1.0342951
2014-03-09 15:34:46.123,8.963891,0.0,-0.5746084
2014-03-09 15:34:46.141,8.963891,0.11492168,-0.38307226
2014-03-09 15:34:46.160,8.810662,0.038307227,-0.11492168
2014-03-09 15:34:46.174,8.848969,-0.19153613,0.11492168
2014-03-09 15:34:46.191,9.040505,-0.45968673,0.0
2014-03-09 15:34:46.200,8.963891,-0.6512229,-0.38307226
2014-03-09 15:34:46.220,8.772355,-0.7278373,-0.34476504
2014-03-09 15:34:46.232,8.465898,-0.61291564,-0.15322891
2014-03-09 15:34:46.250,8.42759,-0.5363012,-0.076614454
2014-03-09 15:34:46.269,8.542512,-0.5363012,0.15322891
2014-03-09 15:34:46.280,8.848969,-0.6895301,0.2681506
2014-03-09 15:34:46.300,9.232041,-0.80445176,0.30645782
2014-03-09 15:34:46.312,9.346964,-0.91937345,0.11492168
2014-03-09 15:34:46.331,9.461885,-1.0342951,0.0
2014-03-09 15:34:46.351,9.308656,-0.9576807,-0.19153613
2014-03-09 15:34:46.362,9.270349,-0.8810662,-0.2681506
2014-03-09 15:34:46.379,9.423578,-0.80445176,-0.076614454
2014-03-09 15:34:46.389,9.5385,-0.7278373,0.19153613
2014-03-09 15:34:46.409,9.500193,-0.80445176,0.4213795
2014-03-09 15:34:46.429,9.155427,-0.8810662,0.38307226
2014-03-09 15:34:46.439,9.040505,-0.9576807,0.19153613
2014-03-09 15:34:46.460,8.925584,-0.6895301,-0.15322891
2014-03-09 15:34:46.469,8.6574335,-0.30645782,-0.38307226
2014-03-09 15:34:46.490,8.772355,-0.19153613,-0.38307226
2014-03-09 15:34:46.514,8.6574335,-0.038307227,-0.38307226
2014-03-09 15:34:46.521,8.389283,0.11492168,-0.5363012
2014-03-09 15:34:46.549,8.236053,0.38307226,-0.4213795
2014-03-09 15:34:46.575,8.734048,0.5363012,0.0
2014-03-09 15:34:46.586,9.193734,0.61291564,0.61291564
2014-03-09 15:34:46.587,9.232041,0.5363012,0.61291564
2014-03-09 15:34:46.599,8.810662,0.38307226,0.0
2014-03-09 15:34:46.624,8.504205,0.15322891,-0.30645782
2014-03-09 15:34:46.629,8.465898,0.0,-0.30645782
2014-03-09 15:34:46.653,8.42759,-0.15322891,-0.34476504
2014-03-09 15:34:46.659,8.695741,-0.34476504,-0.15322891
2014-03-09 15:34:46.680,8.925584,-0.6512229,0.0
2014-03-09 15:34:46.700,9.040505,-0.842759,0.2681506
2014-03-09 15:34:46.709,9.078813,-0.8810662,0.38307226
2014-03-09 15:34:46.729,9.423578,-0.91937345,0.15322891
2014-03-09 15:34:46.741,9.615114,-0.8810662,0.11492168
2014-03-09 15:34:46.760,9.615114,-0.842759,0.038307227
2014-03-09 15:34:46.769,9.461885,-0.61291564,0.038307227
2014-03-09 15:34:46.790,9.308656,-0.38307226,0.19153613
2014-03-09 15:34:46.810,9.155427,-0.22984336,0.34476504
2014-03-09 15:34:46.820,9.078813,-0.15322891,0.45968673
2014-03-09 15:34:46.841,9.155427,-0.2681506,0.4213795
2014-03-09 15:34:46.851,9.232041,-0.38307226,0.5746084
2014-03-09 15:34:46.870,9.232041,-0.5746084,0.49799395
2014-03-09 15:34:46.891,9.270349,-0.6512229,0.34476504
2014-03-09 15:34:46.901,9.461885,-0.61291564,0.30645782
2014-03-09 15:34:46.920,9.615114,-0.30645782,-0.22984336
2014-03-09 15:34:46.930,9.844957,-0.22984336,-0.45968673
2014-03-09 15:34:46.967,9.500193,-0.15322891,-0.30645782
2014-03-09 15:34:46.982,8.848969,-0.15322891,0.038307227
2014-03-09 15:34:46.984,8.389283,-0.38307226,0.45968673
2014-03-09 15:34:47.001,8.465898,-0.7278373,0.7278373
2014-03-09 15:34:47.009,9.002198,-1.0342951,0.61291564
2014-03-09 15:34:47.028,9.423578,-1.3024458,0.5363012
2014-03-09 15:34:47.039,9.691729,-1.3024458,0.5363012
2014-03-09 15:34:47.059,9.80665,-1.2258313,0.4213795
2014-03-09 15:34:47.079,9.80665,-1.1875241,0.49799395
2014-03-09 15:34:47.089,9.615114,-1.2258313,0.5746084
2014-03-09 15:34:47.108,9.308656,-1.0726024,0.30645782
2014-03-09 15:34:47.120,9.11712,-0.9959879,0.0
2014-03-09 15:34:47.140,9.002198,-1.1875241,-0.11492168
2014-03-09 15:34:47.160,8.6574335,-1.1875241,0.076614454
2014-03-09 15:34:47.172,8.350976,-0.9959879,0.45968673
2014-03-09 15:34:47.190,8.350976,-0.6895301,0.80445176
2014-03-09 15:34:47.201,8.580819,-0.38307226,0.91937345
2014-03-09 15:34:47.221,9.155427,-0.30645782,0.38307226
2014-03-09 15:34:47.242,9.385271,-0.38307226,0.45968673
2014-03-09 15:34:47.250,8.848969,-0.5746084,0.61291564
2014-03-09 15:34:47.269,8.121132,-0.7278373,0.91937345
2014-03-09 15:34:47.281,8.0445175,-0.6895301,0.842759
2014-03-09 15:34:47.310,8.619126,-0.842759,0.6895301
2014-03-09 15:34:47.323,8.580819,-0.9576807,0.80445176
2014-03-09 15:34:47.334,8.810662,-0.6512229,0.80445176
2014-03-09 15:34:47.349,10.036493,-0.5363012,0.15322891
2014-03-09 15:34:47.361,11.070788,-0.6895301,0.2681506
2014-03-09 15:34:47.379,11.147403,-0.6895301,0.80445176
2014-03-09 15:34:47.389,11.147403,-0.4213795,0.80445176
2014-03-09 15:34:47.409,11.109096,-0.30645782,0.61291564
2014-03-09 15:34:47.429,10.879252,-0.30645782,0.5746084
2014-03-09 15:34:47.439,10.304645,-0.4213795,0.61291564
2014-03-09 15:34:47.459,9.653421,-0.5363012,0.49799395
2014-03-09 15:34:47.469,9.730036,-0.5746084,0.22984336
2014-03-09 15:34:47.489,9.155427,-0.7661445,0.7278373
2014-03-09 15:34:47.499,7.967903,-0.34476504,-0.2681506
2014-03-09 15:34:47.520,7.5082164,-0.15322891,-0.34476504
2014-03-09 15:34:47.540,7.1251445,-0.076614454,0.5746084
2014-03-09 15:34:47.549,7.469909,-0.19153613,0.2681506
2014-03-09 15:34:47.570,7.2783732,-0.4213795,-0.7278373
2014-03-09 15:34:47.580,6.5122285,0.038307227,-1.2641385
2014-03-09 15:34:47.600,6.129156,0.7661445,-0.7661445
2014-03-09 15:34:47.620,6.7803793,0.45968673,-0.22984336
2014-03-09 15:34:47.629,8.197746,-0.34476504,0.0
2014-03-09 15:34:47.649,9.461885,-1.6472107,0.61291564
2014-03-09 15:34:47.659,11.224017,-3.2944214,0.6512229
2014-03-09 15:34:47.680,12.909535,-4.1371803,-0.4213795
2014-03-09 15:34:47.701,14.058752,-4.1371803,0.2681506
2014-03-09 15:34:47.710,14.326903,-3.2561142,0.5746084
2014-03-09 15:34:47.729,12.717999,-2.566584,0.5746084
2014-03-09 15:34:47.741,10.496181,-1.9919758,0.9576807
2014-03-09 15:34:47.760,8.810662,-1.0342951,0.5363012
2014-03-09 15:34:47.769,6.9719152,-0.49799395,-0.038307227
2014-03-09 15:34:47.790,6.397307,-0.22984336,-0.45968673
2014-03-09 15:34:47.809,6.205771,-0.076614454,-1.1492168
2014-03-09 15:34:47.820,6.205771,-0.11492168,-1.3024458
2014-03-09 15:34:47.841,5.9759274,0.038307227,-0.842759
2014-03-09 15:34:47.850,6.090849,0.38307226,-0.80445176
2014-03-09 15:34:47.869,6.703765,0.30645782,-0.34476504
2014-03-09 15:34:47.890,7.240066,0.38307226,-0.11492168
2014-03-09 15:34:47.901,7.699753,0.38307226,-0.19153613
2014-03-09 15:34:47.920,8.42759,0.45968673,-0.7661445
2014-03-09 15:34:47.929,9.576807,0.7278373,-1.6472107
2014-03-09 15:34:47.949,10.189722,-0.22984336,-2.2218192
2014-03-09 15:34:47.961,10.534488,-0.91937345,-1.9919758
2014-03-09 15:34:47.981,10.955867,-1.1109096,-1.6472107
2014-03-09 15:34:48.002,10.611102,-1.1492168,-0.8810662
2014-03-09 15:34:48.010,10.611102,-1.0726024,-0.7661445
2014-03-09 15:34:48.029,11.300632,-1.2641385,-1.1109096
2014-03-09 15:34:48.042,11.300632,-1.0342951,-1.0342951
2014-03-09 15:34:48.061,11.18571,-0.6512229,-0.8810662
2014-03-09 15:34:48.082,10.151415,-0.842759,-1.1492168
2014-03-09 15:34:48.092,8.810662,-1.0342951,-1.0342951
2014-03-09 15:34:48.110,7.6614456,-1.2258313,-0.7278373
2014-03-09 15:34:48.122,7.1634517,-1.0342951,-0.6512229
2014-03-09 15:34:48.140,7.086837,-1.1492168,-1.0342951
2014-03-09 15:34:48.160,7.201759,-1.2641385,-1.0726024
2014-03-09 15:34:48.169,7.5465236,-1.5705963,-0.6895301
2014-03-09 15:34:48.189,7.73806,-1.9153614,-0.7661445
2014-03-09 15:34:48.200,8.542512,-2.030283,-0.6512229
2014-03-09 15:34:48.221,9.155427,-1.6089035,0.038307227
2014-03-09 15:34:48.229,9.959879,-1.3024458,0.076614454
2014-03-09 15:34:48.249,10.994174,-1.4556746,-0.076614454
2014-03-09 15:34:48.271,11.87524,-1.3024458,-0.34476504
2014-03-09 15:34:48.282,12.29662,-1.2258313,0.15322891
2014-03-09 15:34:48.301,11.453861,-1.2258313,0.6512229
2014-03-09 15:34:48.312,10.036493,-1.0726024,0.38307226
2014-03-09 15:34:48.331,8.887277,-0.5746084,-0.38307226
2014-03-09 15:34:48.356,8.00621,-0.15322891,-0.9959879
2014-03-09 15:34:48.361,7.240066,0.038307227,-0.8810662
2014-03-09 15:34:48.373,6.7803793,0.11492168,-0.6895301
2014-03-09 15:34:48.389,7.0102224,0.11492168,0.30645782
2014-03-09 15:34:48.409,7.5082164,-0.038307227,0.5746084
2014-03-09 15:34:48.428,8.082825,-0.30645782,0.5746084
2014-03-09 15:34:48.439,8.274361,-0.38307226,0.45968673
2014-03-09 15:34:48.460,8.082825,-0.34476504,0.5746084
2014-03-09 15:34:48.469,7.8146744,-0.11492168,0.61291564
2014-03-09 15:34:48.489,8.00621,0.038307227,0.6512229
2014-03-09 15:34:48.499,8.312668,0.076614454,1.1109096
2014-03-09 15:34:48.519,8.504205,0.34476504,0.7661445
2014-03-09 15:34:48.539,9.270349,0.2681506,0.8810662
2014-03-09 15:34:48.548,9.423578,-0.038307227,0.4213795
2014-03-09 15:34:48.569,9.80665,-0.038307227,-0.34476504
2014-03-09 15:34:48.580,10.228029,-0.30645782,-0.076614454
2014-03-09 15:34:48.600,10.496181,-0.49799395,0.0
2014-03-09 15:34:48.612,10.266336,-0.7278373,0.61291564
2014-03-09 15:34:48.629,9.500193,-0.49799395,1.6089035
2014-03-09 15:34:48.649,8.197746,-0.11492168,2.3750482
2014-03-09 15:34:48.659,7.1251445,0.45968673,1.7238252
2014-03-09 15:34:48.679,6.167464,0.61291564,-0.38307226
2014-03-09 15:34:48.699,4.865018,0.5363012,-1.1109096
2014-03-09 15:34:48.709,4.596867,0.4213795,-0.6512229
2014-03-09 15:34:48.723,5.133168,0.19153613,-0.34476504
2014-03-09 15:34:48.741,6.6654577,-0.30645782,0.2681506
2014-03-09 15:34:48.760,8.925584,-0.842759,1.8387469
2014-03-09 15:34:48.771,11.60709,-0.49799395,2.4899697
2014-03-09 15:34:48.790,13.484144,-0.4213795,2.6431987
2014-03-09 15:34:48.814,14.709975,-1.1875241,3.1028855
2014-03-09 15:34:48.820,14.211981,-1.1875241,1.4939818
2014-03-09 15:34:48.841,13.445837,-1.3024458,1.2258313
2014-03-09 15:34:48.852,12.143391,-1.1875241,0.5363012
2014-03-09 15:34:48.869,11.377247,-1.0726024,-0.4213795
2014-03-09 15:34:48.890,10.879252,-1.0726024,-1.6472107
2014-03-09 15:34:48.900,10.879252,-0.7278373,-1.8004397
2014-03-09 15:34:48.920,9.423578,0.30645782,-1.4173675
2014-03-09 15:34:48.931,6.244078,1.6472107,-0.9576807
2014-03-09 15:34:48.951,4.673482,3.2944214,-0.842759
2014-03-09 15:34:48.960,4.060566,3.4859576,-1.6472107
2014-03-09 15:34:48.980,5.5162406,2.6431987,-0.9576807
2014-03-09 15:34:49.000,7.2783732,1.8004397,-0.9576807
2014-03-09 15:34:49.025,8.236053,0.6895301,-1.3790601
2014-03-09 15:34:49.051,8.6574335,0.91937345,-0.22984336
2014-03-09 15:34:49.052,8.772355,1.0726024,-0.6512229
2014-03-09 15:34:49.080,9.002198,0.49799395,-0.842759
2014-03-09 15:34:49.089,9.385271,0.30645782,-1.6089035
2014-03-09 15:34:49.099,9.844957,0.30645782,-0.842759
2014-03-09 15:34:49.109,10.457873,-0.5746084,-0.076614454
2014-03-09 15:34:49.119,11.836933,-1.7238252,0.38307226
2014-03-09 15:34:49.139,12.411542,-2.3750482,0.5363012
2014-03-09 15:34:49.159,10.994174,-2.681506,0.34476504
2014-03-09 15:34:49.169,9.308656,-2.528277,0.0
2014-03-09 15:34:49.189,8.465898,-2.1452048,-0.49799395
2014-03-09 15:34:49.199,8.580819,-2.2601264,-0.5746084
2014-03-09 15:34:49.220,8.810662,-1.4939818,-0.80445176
2014-03-09 15:34:49.229,8.887277,-0.45968673,-0.9576807
2014-03-09 15:34:49.250,8.312668,0.4213795,-1.0342951
2014-03-09 15:34:49.269,8.389283,0.4213795,-1.7238252
2014-03-09 15:34:49.279,8.580819,-0.49799395,-2.9113493
2014-03-09 15:34:49.299,9.193734,-1.2258313,-3.6774938
2014-03-09 15:34:49.309,9.155427,-1.8770541,-3.5242648
2014-03-09 15:34:49.329,9.040505,-2.681506,-3.0262709
2014-03-09 15:34:49.348,8.504205,-2.9496565,-2.3750482
2014-03-09 15:34:49.359,7.5082164,-2.528277,-1.532289
2014-03-09 15:34:49.379,6.9719152,-2.6048915,-1.685518
2014-03-09 15:34:49.389,6.703765,-2.6431987,-1.340753
2014-03-09 15:34:49.409,5.9759274,-3.064578,-0.9959879
2014-03-09 15:34:49.429,5.401319,-2.834735,-1.1875241
2014-03-09 15:34:49.440,5.9759274,-2.9496565,-2.0685902
2014-03-09 15:34:49.460,6.7803793,-3.3327289,-2.873042
2014-03-09 15:34:49.469,6.933608,-3.2561142,-3.2944214
2014-03-09 15:34:49.490,6.6271505,-2.4133554,-3.064578
2014-03-09 15:34:49.501,6.8186865,-1.4173675,-2.6431987
2014-03-09 15:34:49.520,6.7803793,-1.5705963,-2.6048915
2014-03-09 15:34:49.540,7.699753,-2.7964275,-2.9496565
2014-03-09 15:34:49.549,7.1251445,-3.4476504,-2.719813
2014-03-09 15:34:49.569,6.5505357,-3.3327289,-3.2944214
2014-03-09 15:34:49.579,6.0525417,-3.0262709,-3.4093432
2014-03-09 15:34:49.677,5.899313,-2.3750482,-4.060566
2014-03-09 15:34:49.682,7.393295,-0.91937345,-5.554548
2014-03-09 15:34:49.686,9.232041,0.15322891,-7.5465236
2014-03-09 15:34:49.691,9.615114,-0.22984336,-8.734048
2014-03-09 15:34:49.692,7.776367,-0.6512229,-9.002198
2014-03-09 15:34:49.697,3.5625722,-1.0726024,-8.504205
2014-03-09 15:34:49.701,6.3589997,-4.405331,-9.653421
2014-03-09 15:34:49.708,19.574993,-8.6574335,-18.617311
2014-03-09 15:34:49.729,17.927782,-7.8912888,-7.2783732
2014-03-09 15:34:49.739,-0.2681506,-8.389283,-2.4133554
2014-03-09 15:34:49.759,8.082825,-5.439626,-10.036493
2014-03-09 15:34:49.769,4.903325,-1.532289,-2.2218192
2014-03-09 15:34:49.790,4.098873,-0.15322891,-1.4939818
2014-03-09 15:34:49.812,7.086837,1.1492168,-2.9879637
2014-03-09 15:34:49.820,8.312668,3.6391866,-2.834735
2014-03-09 15:34:49.841,6.6271505,0.91937345,0.5363012
2014-03-09 15:34:49.852,11.453861,0.11492168,0.6512229
2014-03-09 15:34:49.871,13.560759,-0.11492168,2.9496565
2014-03-09 15:34:49.880,15.514427,0.9959879,1.2641385
2014-03-09 15:34:49.900,14.058752,2.2601264,2.183512
2014-03-09 15:34:49.920,12.947843,3.217807,1.3790601
2014-03-09 15:34:49.931,11.415554,3.5242648,0.91937345
2014-03-09 15:34:49.949,9.959879,2.834735,0.5746084
2014-03-09 15:34:49.960,8.848969,2.2601264,0.9959879
2014-03-09 15:34:49.980,7.1634517,1.0342951,1.9536686
2014-03-09 15:34:50.000,7.3166804,0.45968673,1.8387469
2014-03-09 15:34:50.010,8.504205,0.15322891,0.6895301
2014-03-09 15:34:50.033,11.109096,0.22984336,0.038307227
2014-03-09 15:34:50.041,10.726024,-0.4213795,1.1109096
2014-03-09 15:34:50.060,8.695741,-1.1109096,0.45968673
2014-03-09 15:34:50.080,6.0142345,-0.6895301,0.076614454
2014-03-09 15:34:50.092,2.4899697,0.5746084,-1.1492168
2014-03-09 15:34:50.110,0.9576807,1.3790601,-2.1452048
2014-03-09 15:34:50.120,2.4516625,2.1068976,-1.7238252
2014-03-09 15:34:50.141,5.746084,2.336741,-1.8004397
2014-03-09 15:34:50.160,7.5848308,1.8387469,-2.1068976
2014-03-09 15:34:50.170,8.082825,1.1492168,-2.1452048
2014-03-09 15:34:50.191,7.201759,0.15322891,-1.0342951
2014-03-09 15:34:50.200,7.431602,-1.0726024,-0.5363012
2014-03-09 15:34:50.220,10.228029,-2.1452048,-1.4173675
2014-03-09 15:34:50.231,13.254301,-3.0262709,-1.532289
2014-03-09 15:34:50.250,11.9135475,-2.4899697,0.7278373
2014-03-09 15:34:50.271,8.350976,-0.5363012,-0.38307226
2014-03-09 15:34:50.280,8.6574335,1.8770541,-2.336741
2014-03-09 15:34:50.300,8.848969,1.9919758,-3.9839516
2014-03-09 15:34:50.311,9.193734,2.834735,-3.6008794
2014-03-09 15:34:50.331,6.090849,1.9919758,-3.3327289
2014-03-09 15:34:50.351,3.6008794,1.4556746,-2.873042
2014-03-09 15:34:50.361,4.367024,1.532289,-3.86903
2014-03-09 15:34:50.379,5.439626,1.9153614,-4.4436383
2014-03-09 15:34:50.389,8.350976,2.528277,-5.631162
2014-03-09 15:34:50.409,11.18571,3.1411927,-5.8226986
2014-03-09 15:34:50.419,10.91756,3.371036,-3.9456444
2014-03-09 15:34:50.439,8.734048,2.834735,-4.367024
2014-03-09 15:34:50.459,6.205771,3.6391866,-3.5625722
2014-03-09 15:34:50.468,6.167464,4.4819455,-5.707777
2014-03-09 15:34:50.489,7.8912888,4.7884035,-3.1411927
2014-03-09 15:34:50.499,12.98615,5.2480903,-5.9759274
2014-03-09 15:34:50.519,13.790602,7.393295,-2.4516625
2014-03-09 15:34:50.539,16.16565,8.580819,0.11492168
2014-03-09 15:34:50.549,18.962078,4.7884035,-3.1411927
2014-03-09 15:34:50.569,16.280571,-0.11492168,-3.5625722
2014-03-09 15:34:50.580,15.820885,-1.2641385,-0.22984336
2014-03-09 15:34:50.600,12.832921,-3.1411927,-1.8387469
2014-03-09 15:34:50.619,12.411542,-2.6048915,-2.7964275
2014-03-09 15:34:50.628,11.18571,1.5705963,-5.8226986
2014-03-09 15:34:50.648,11.9135475,-0.7278373,-2.1452048
2014-03-09 15:34:50.660,11.87524,-2.1068976,0.80445176
2014-03-09 15:34:50.680,9.883265,-5.2480903,3.9839516
2014-03-09 15:34:50.689,7.929596,-5.7843914,5.9759274
2014-03-09 15:34:50.713,9.730036,-6.3589997,3.7924154
2014-03-09 15:34:50.732,10.6877165,-4.3287168,-0.15322891
2014-03-09 15:34:50.742,11.951855,-3.8307228,0.15322891
2014-03-09 15:34:50.761,9.730036,-3.217807,2.0685902
2014-03-09 15:34:50.769,10.304645,-3.5242648,1.7621324
2014-03-09 15:34:50.790,9.691729,-1.6089035,-1.4939818
2014-03-09 15:34:50.802,7.699753,-2.681506,-4.7500963
2014-03-09 15:34:50.820,7.393295,-3.371036,-3.6391866
2014-03-09 15:34:50.842,5.7843914,-4.213795,-3.6391866
2014-03-09 15:34:50.850,6.3589997,-4.596867,-2.528277
2014-03-09 15:34:50.869,4.596867,-2.2218192,-2.4899697
2014-03-09 15:34:50.881,4.9416323,-0.91937345,-2.183512
2014-03-09 15:34:50.903,4.5202527,-1.2641385,-2.0685902
2014-03-09 15:34:50.921,3.4476504,-1.9536686,-1.3790601
2014-03-09 15:34:50.929,3.1028855,-2.4516625,-0.22984336
2014-03-09 15:34:50.949,3.6391866,-2.6431987,0.4213795
2014-03-09 15:34:50.961,4.1371803,-3.3327289,-0.8810662
2014-03-09 15:34:50.981,5.631162,-2.873042,-2.2218192
2014-03-09 15:34:51.006,6.090849,-3.3327289,-2.1068976
2014-03-09 15:34:51.015,7.2783732,-4.596867,-1.4556746
2014-03-09 15:34:51.027,8.0445175,-6.588843,-1.4556746
2014-03-09 15:34:51.041,8.00621,-7.1634517,-2.6431987
2014-03-09 15:34:51.061,6.129156,-5.7843914,-2.2218192
2014-03-09 15:34:51.071,5.2480903,-4.6351743,-1.532289
2014-03-09 15:34:51.090,6.129156,-5.094861,-1.9919758
2014-03-09 15:34:51.109,7.967903,-5.133168,-3.0262709
2014-03-09 15:34:51.120,7.8912888,-2.719813,-3.064578
2014-03-09 15:34:51.141,7.8912888,-0.6895301,-4.2521024
2014-03-09 15:34:51.160,6.9719152,-0.2681506,-5.592855
2014-03-09 15:34:51.169,6.2823853,-2.873042,-6.3589997
2014-03-09 15:34:51.190,8.082825,-1.8004397,-8.082825
2014-03-09 15:34:51.200,10.764331,-2.1452048,-8.121132
2014-03-09 15:34:51.220,10.572795,-2.7964275,-6.205771
2014-03-09 15:34:51.229,7.469909,-0.34476504,-8.42759
2014-03-09 15:34:51.251,7.3166804,-3.1794999,-6.8569937
2014-03-09 15:34:51.269,9.730036,-7.967903,-5.8226986
2014-03-09 15:34:51.280,16.089035,-12.066776,-9.040505
2014-03-09 15:34:51.300,19.6133,-17.161638,-17.046717
2014-03-09 15:34:51.310,-2.681506,-9.002198,-1.7238252
2014-03-09 15:34:51.342,12.066776,-14.288596,-8.925584
2014-03-09 15:34:51.354,9.998186,-8.274361,-8.580819
2014-03-09 15:34:51.360,10.6877165,-7.5082164,-7.8146744
2014-03-09 15:34:51.381,14.709975,-3.7924154,-2.9496565
2014-03-09 15:34:51.391,5.861006,-2.0685902,1.3024458
2014-03-09 15:34:51.411,6.742072,-0.6895301,-2.2601264
2014-03-09 15:34:51.419,11.568783,3.371036,-5.056554
2014-03-09 15:34:51.439,13.752295,1.340753,-1.2641385
2014-03-09 15:34:51.459,10.189722,-1.0726024,2.9113493
2014-03-09 15:34:51.469,8.504205,-2.183512,4.213795
2014-03-09 15:34:51.489,12.5264635,-0.9576807,2.7581203
2014-03-09 15:34:51.499,8.6574335,-1.0726024,3.2561142
2014-03-09 15:34:51.519,7.5848308,2.2984335,0.2681506
2014-03-09 15:34:51.539,7.73806,3.0262709,0.22984336
2014-03-09 15:34:51.549,11.147403,2.7581203,-1.9153614
2014-03-09 15:34:51.569,13.599066,1.340753,-1.2258313
2014-03-09 15:34:51.579,7.929596,-1.3024458,0.4213795
2014-03-09 15:34:51.600,9.423578,-1.0726024,-1.532289
2014-03-09 15:34:51.619,8.734048,-1.0342951,0.9576807
2014-03-09 15:34:51.628,6.895301,-0.4213795,2.030283
2014-03-09 15:34:51.648,7.5465236,-0.30645782,0.38307226
2014-03-09 15:34:51.660,10.611102,0.11492168,-0.6512229
2014-03-09 15:34:51.680,11.415554,0.0,-0.15322891
2014-03-09 15:34:51.689,11.224017,-0.45968673,-0.2681506
2014-03-09 15:34:51.711,10.496181,0.30645782,-0.19153613
2014-03-09 15:34:51.730,7.967903,-0.11492168,1.6472107
2014-03-09 15:34:51.742,5.4779334,-1.8770541,1.7621324
2014-03-09 15:34:51.762,6.3206925,-3.5242648,1.5705963
2014-03-09 15:34:51.770,6.588843,-6.0525417,0.9959879
2014-03-09 15:34:51.790,12.449849,-6.588843,-5.5162406
2014-03-09 15:34:51.809,10.113108,-5.8226986,-3.86903
2014-03-09 15:34:51.822,8.350976,-1.2258313,-3.6774938
2014-03-09 15:34:51.843,14.518439,3.0262709,-1.8004397
2014-03-09 15:34:51.852,8.350976,1.7238252,4.8267107
2014-03-09 15:34:51.870,7.201759,2.2984335,1.340753
2014-03-09 15:34:51.881,8.121132,2.183512,-1.340753
2014-03-09 15:34:51.901,7.5848308,-0.30645782,-2.528277
2014-03-09 15:34:51.921,8.236053,-0.7278373,-4.060566
2014-03-09 15:34:51.931,9.921572,-0.5746084,-2.9496565
2014-03-09 15:34:51.951,11.18571,-2.528277,-2.1068976
2014-03-09 15:34:51.961,11.453861,-1.8387469,-2.9496565
2014-03-09 15:34:51.981,8.695741,-1.1875241,-3.371036
2014-03-09 15:34:52.001,2.2984335,0.30645782,-1.6089035
2014-03-09 15:34:52.011,4.060566,-0.6512229,-4.9799395
2014-03-09 15:34:52.029,6.933608,-1.4939818,-6.5505357
2014-03-09 15:34:52.043,9.078813,-0.6512229,-7.8912888
2014-03-09 15:34:52.061,9.844957,0.7661445,-10.840945
2014-03-09 15:34:52.071,8.236053,1.4173675,-10.802638
2014-03-09 15:34:52.091,12.411542,-2.9113493,-7.2783732
2014-03-09 15:34:52.110,4.060566,-2.719813,-12.794614
2014-03-09 15:34:52.120,3.715801,-2.4899697,0.61291564
2014-03-09 15:34:52.143,18.157625,-4.5202527,-12.794614
2014-03-09 15:34:52.153,5.899313,0.038307227,-19.574993
2014-03-09 15:34:52.169,0.6895301,-1.532289,-15.05474
2014-03-09 15:34:52.190,2.336741,-4.673482,-10.189722
2014-03-09 15:34:52.201,-1.4173675,-4.55856,-8.389283
2014-03-09 15:34:52.220,-5.3247046,-1.8004397,-6.5122285
2014-03-09 15:34:52.231,-5.9759274,-0.842759,-7.1251445
2014-03-09 15:34:52.250,-5.899313,-0.19153613,-5.746084
2014-03-09 15:34:52.269,-5.554548,-0.4213795,-4.0222588
2014-03-09 15:34:52.280,-4.060566,-0.80445176,-11.147403
2014-03-09 15:34:52.303,0.7278373,-2.9879637,-19.191921
2014-03-09 15:34:52.316,-2.6431987,-2.566584,-6.933608
2014-03-09 15:34:52.330,-2.7964275,-3.5625722,-9.80665
2014-03-09 15:34:52.343,-0.15322891,-3.4859576,-16.280571
2014-03-09 15:34:52.361,-0.9959879,-3.715801,-14.939818
2014-03-09 15:34:52.379,-0.6895301,-3.6008794,-18.387468
2014-03-09 15:34:52.389,-1.340753,-2.336741,-16.050728
2014-03-09 15:34:52.409,-3.2561142,-3.6008794,-14.365211
2014-03-09 15:34:52.419,-5.7843914,-2.7581203,-14.595054
2014-03-09 15:34:52.440,-8.580819,-0.9959879,-11.224017
2014-03-09 15:34:52.463,-9.653421,0.34476504,-9.346964
2014-03-09 15:34:52.476,-7.2783732,-1.7238252,-14.326903
2014-03-09 15:34:52.493,-5.171476,-4.175488,-15.591042
2014-03-09 15:34:52.500,-3.6391866,-3.4093432,-16.625336
2014-03-09 15:34:52.519,-4.175488,-1.6472107,-15.629349
2014-03-09 15:34:52.539,-5.7843914,-3.4476504,-14.939818
2014-03-09 15:34:52.549,-4.1371803,-3.6774938,-18.579004
2014-03-09 15:34:52.569,-4.5202527,-4.865018,-18.847157
2014-03-09 15:34:52.579,-3.8307228,-7.201759,-18.885464
2014-03-09 15:34:52.610,-2.681506,-6.129156,-17.429789
